time,seconds_elapsed,accel_z,accel_y,accel_x,gyro_z,gyro_y,gyro_x,label
1.72E+18,0.04977099609,0.006403923035,0.1567209363,-0.1421070099,-0.0193943996,0.02794626169,0.01481304597,eating
1.72E+18,0.05976123047,0.002830505371,-0.02632471919,0.07494592667,-0.07437065244,0.03405473381,-0.07070557028,eating
1.72E+18,0.0697512207,0.02800035477,0.2239382863,-0.166888237,-0.09697200358,0.01450762246,-0.09513945878,eating
1.72E+18,0.07974145508,0.09271240234,0.1401547492,-0.1504321098,-0.1214058921,-0.06551336497,-0.07742489129,eating
1.72E+18,0.08973168945,0.1542854309,-0.0353346169,-0.1028628349,-0.1476723254,-0.1571404636,-0.05238015205,eating
1.72E+18,0.09972167969,0.1208152771,-0.1070670485,-0.1276636124,-0.1721062213,-0.2163926363,-0.02183778957,eating
1.72E+18,0.1097119141,0.04191732407,-0.08985516429,-0.2154555321,-0.1831014603,-0.2493783981,0.006872031838,eating
1.72E+18,0.1197019043,0.0006165504456,-0.1061345637,-0.2896780968,-0.1776038408,-0.2677038014,0.020310672,eating
1.72E+18,0.1296921387,-0.1079540253,-0.08444428444,-0.2694811821,-0.1641651988,-0.280531615,0.02519745007,eating
1.72E+18,0.139682373,-0.1801695824,-0.002947121859,-0.2484927177,-0.148894012,-0.2756448388,0.02702999115,eating
1.72E+18,0.1496723633,-0.189031601,0.05099135637,-0.2213673592,-0.1403421611,-0.2664821148,0.0227540601,eating
1.72E+18,0.1596625977,-0.1943283081,0.1292735338,-0.2615585327,-0.1299577504,-0.2609844804,0.01420219894,eating
1.72E+18,0.169652832,-0.1982512474,0.1264011264,-0.2666954994,-0.1171299592,-0.2585411072,0.001985253533,eating
1.72E+18,0.1796428223,-0.1668510437,0.1220106483,-0.2885360718,-0.1036913246,-0.2609844804,-0.0193943996,eating
1.72E+18,0.1896330566,-0.1080713272,0.1357150078,-0.2364807129,-0.1030804738,-0.2719797492,-0.04382828996,eating
1.72E+18,0.1996230469,-0.0841255188,0.09104913473,-0.1591701508,-0.1110214889,-0.280531615,-0.06337540597,eating
1.72E+18,0.2096132813,-0.05032110214,0.1249181628,-0.1227416992,-0.113464877,-0.2823641598,-0.08292251825,eating
1.72E+18,0.2196035156,-0.02105426788,0.06371086836,-0.1017580032,-0.1110214889,-0.2774773538,-0.1091889441,eating
1.72E+18,0.2295935059,0.01722717285,0.005519092083,-0.04930305481,-0.106745556,-0.2652604282,-0.1403421611,eating
1.72E+18,0.2395837402,0.1167516708,-0.05632245541,0.1136608124,-0.1183516532,-0.2506000996,-0.1617218107,eating
1.72E+18,0.2495739746,0.2296948433,-0.09945267439,0.2387328148,-0.1464506239,-0.2371614426,-0.1574458778,eating
1.72E+18,0.2595639648,0.2944149971,-0.09669810534,0.2932128906,-0.1763821393,-0.2286095917,-0.1281252056,eating
1.72E+18,0.2695541992,0.2730374336,-0.09290775657,0.2280273438,-0.1910424829,-0.2060082406,-0.09269607067,eating
1.72E+18,0.2795444336,0.2466011047,-0.08530390263,0.08223390579,-0.1788255423,-0.1785201132,-0.07253811508,eating
1.72E+18,0.2895344238,0.2170391083,-0.09901258349,-0.04462194443,-0.1519482583,-0.146756053,-0.07803573459,eating
1.72E+18,0.2995246582,0.2144246101,-0.1003445387,-0.1167573929,-0.1256818175,-0.1168245375,-0.09391776472,eating
1.72E+18,0.3095146484,0.212875843,-0.05868077278,-0.1065683365,-0.1097997949,-0.09361234307,-0.100026235,eating
1.72E+18,0.3195048828,0.1945018768,-0.04130548239,-0.1029424667,-0.1006370857,-0.07956285775,-0.09513945878,eating
1.72E+18,0.3294951172,0.1465058327,-0.06870770454,-0.1154613495,-0.09941539168,-0.07467607409,-0.09147437662,eating
1.72E+18,0.3394851074,0.1053438187,-0.09342423081,-0.1536984444,-0.1055238619,-0.08261708915,-0.09147437662,eating
1.72E+18,0.3494753418,0.06492042542,-0.07126945257,-0.2134032249,-0.1097997949,-0.1076618284,-0.09269607067,eating
1.72E+18,0.3594655762,0.03782320023,-0.07102864981,-0.2067370415,-0.1104106456,-0.1479777545,-0.08903098851,eating
1.72E+18,0.3694555664,-0.02793216705,-0.08587431908,-0.09559726715,-0.1177408099,-0.1821851879,-0.0804791227,eating
1.72E+18,0.3794458008,-0.08641862869,-0.01554483175,-0.04177379608,-0.1293469071,-0.1931804419,-0.07314895838,eating
1.72E+18,0.389435791,-0.1558089256,0.02740710974,-0.08419418335,-0.1317902952,-0.1821851879,-0.07864658535,eating
1.72E+18,0.3994260254,-0.2345523834,0.0430868268,-0.1380357742,-0.1238492802,-0.1583621502,-0.09880454093,eating
1.72E+18,0.4094162598,-0.2229809761,0.1098182201,-0.1674385071,-0.1152974218,-0.1241547018,-0.1281252056,eating
1.72E+18,0.41940625,-0.2487893105,0.100700438,-0.1969766617,-0.1085781008,-0.09910997003,-0.1647760421,eating
1.72E+18,0.4293964844,-0.2185688019,0.0707654953,-0.220949173,-0.1043021679,-0.09422318637,-0.1959292591,eating
1.72E+18,0.4393867188,-0.1391534805,0.05916643143,-0.2010440826,-0.1036913246,-0.1094943732,-0.2148655206,eating
1.72E+18,0.4493764648,-0.04320049286,0.01681762934,-0.1251020432,-0.1116323397,-0.1394258887,-0.213643834,eating
1.72E+18,0.4593669434,0.02269935608,-0.0333314538,-0.09291028976,-0.1214058921,-0.1748550236,-0.1971509457,eating
1.72E+18,0.4693571777,0.01486587524,-0.0463771224,-0.1409740448,-0.1250709742,-0.2108950168,-0.1788255423,eating
1.72E+18,0.4793469238,-0.001529216766,-0.06713691354,-0.1531558037,-0.1226275861,-0.2518217862,-0.1617218107,eating
1.72E+18,0.4893371582,-0.01579093933,-0.08343011141,-0.1150922775,-0.1238492802,-0.2762556672,-0.1537808031,eating
1.72E+18,0.4993273926,-0.05224990845,-0.1336836219,-0.07619285583,-0.1415638477,-0.289083451,-0.151337415,eating
1.72E+18,0.5093173828,-0.04292058945,-0.1357239783,-0.08288908005,-0.1714953631,-0.295802772,-0.1537808031,eating
1.72E+18,0.5193076172,-0.0656542778,-0.1156361699,-0.0901632309,-0.1904316396,-0.3092414141,-0.1550024897,eating
1.72E+18,0.5292976074,-0.0725402832,-0.1034998298,-0.1241874695,-0.1885990947,-0.3269560039,-0.1464506239,eating
1.72E+18,0.5392880859,-0.1654968262,-0.08845818043,-0.1252841949,-0.1684411317,-0.3355078697,-0.137898773,eating
1.72E+18,0.549277832,-0.2470221519,-0.07440310717,-0.09380626678,-0.1470614821,-0.3397837877,-0.1415638477,eating
1.72E+18,0.5592680664,-0.3052582741,-0.03035989404,-0.0917673111,-0.1311794519,-0.3501681983,-0.1580567211,eating
1.72E+18,0.5692583008,-0.4279508591,-0.03084000945,-0.09710693359,-0.13362284,-0.3562766612,-0.1776038408,eating
1.72E+18,0.579248291,-0.4925084114,-0.0895961225,-0.01949310303,-0.169051975,-0.3513898849,-0.1904316396,eating
1.72E+18,0.5892385254,-0.7546033859,-0.4751682281,-0.0740146637,-0.3016058207,-0.271368891,-0.1794363856,eating
1.72E+18,0.5992287598,-0.6396780014,-0.1226847172,-0.05545759201,-0.4329380095,-0.2194468826,-0.1788255423,eating
1.72E+18,0.60921875,-0.2770905495,0.2367417812,-0.0503988266,-0.4506525695,-0.3251234591,-0.2215848416,eating
1.72E+18,0.6192089844,-0.3008012772,0.2242545485,-0.2177467346,-0.4023956358,-0.4100312293,-0.2655658424,eating
1.72E+18,0.6291992188,-0.2457499504,0.1986428499,-0.2700872421,-0.3468085229,-0.4210264683,-0.2930539846,eating
1.72E+18,0.639189209,-0.03665924072,0.2383735776,-0.1353349686,-0.3095468581,-0.4161396921,-0.3126010895,eating
1.72E+18,0.6491794434,0.03609275818,0.2051016688,-0.1080131531,-0.280226171,-0.40270105,-0.3297048211,eating
1.72E+18,0.6591694336,0.05429792404,0.1000378728,-0.1294388771,-0.2496838123,-0.3819322586,-0.3449759781,eating
1.72E+18,0.669159668,0.07796764374,0.06645202637,-0.1943793297,-0.2057028115,-0.3642176688,-0.3571929336,eating
1.72E+18,0.6791499023,0.06051778793,0.04031896591,-0.3263764381,-0.1262926757,-0.3550549746,-0.3773508966,eating
1.72E+18,0.6891398926,-0.03491783142,-0.06627631187,-0.4826440811,-0.03222219273,-0.3159607351,-0.4072824121,eating
1.72E+18,0.699130127,-0.2274942398,-0.2306602299,-0.5794286728,0.03252761811,-0.222501114,-0.4359922409,eating
1.72E+18,0.7091203613,-0.2986712456,-0.2753367126,-0.5618085861,0.06184828654,-0.1015533581,-0.4683671296,eating
1.72E+18,0.7191103516,-0.2927899361,-0.2713761032,-0.5982866287,0.07711946964,-0.01298050396,-0.5044071078,eating
1.72E+18,0.7291005859,-0.2711787224,-0.2265354842,-0.6435823441,0.09422318637,0.02855710872,-0.5398362875,eating
1.72E+18,0.7390905762,-0.3102092743,-0.1923116446,-0.6558890343,0.1284306347,0.01756185852,-0.5703786016,eating
1.72E+18,0.7490808105,-0.3079590797,-0.1227915734,-0.6184911728,0.1699682474,-0.02092151903,-0.6094728708,eating
1.72E+18,0.7590710449,-0.2382583618,-0.06853534281,-0.4410390854,0.1950129867,-0.07223268598,-0.6608603597,eating
1.72E+18,0.7690610352,-0.1304078102,-0.08537726104,-0.2623057365,0.1937913001,-0.1235438585,-0.7121715546,eating
1.72E+18,0.7790512695,-0.0370850563,-0.1219540387,-0.1879372597,0.1821851879,-0.1699682474,-0.748822391,eating
1.72E+18,0.7890415039,0.05277633667,-0.1880231798,-0.14712286,0.1754658818,-0.202343151,-0.7677586675,eating
1.72E+18,0.7990314941,0.1579141617,-0.2490418106,0.05101919174,0.1663031727,-0.1998997629,-0.7677586675,eating
1.72E+18,0.8090217285,0.2258973122,-0.2514558434,0.1258149147,0.1565296054,-0.160194695,-0.7592067719,eating
1.72E+18,0.8190117188,0.2527575493,-0.2735799551,0.1775169373,0.1491994411,-0.09055810422,-0.753098309,eating
1.72E+18,0.8290019531,0.3372592926,-0.2641192377,0.3412604332,0.1339282542,-0.01053711493,-0.7421030402,eating
1.72E+18,0.8389921875,0.1219820976,-0.5930473804,0.4045724869,0.02886253223,0.1776801944,-0.7249993682,eating
1.72E+18,0.8489821777,0.5261650085,-0.0463321209,0.5932512283,-0.06642963737,0.2919086218,-0.7476006746,eating
1.72E+18,0.8589724121,0.8567686081,0.1591235101,0.7038269043,-0.0560452342,0.2149418741,-0.8092962503,eating
1.72E+18,0.8689626465,0.8472418785,0.138258636,0.5554943085,0.01481304597,0.1617981642,-0.8508338928,eating
1.72E+18,0.8789526367,0.9121413231,0.1219432354,0.446975708,0.09116895497,0.1508029103,-0.8636616468,eating
1.72E+18,0.8889428711,0.8336629868,-0.1294600368,0.3434009552,0.1088835225,0.2021140903,-0.8386169076,eating
1.72E+18,0.8989331055,0.9683279991,-0.1497167051,0.3755440712,0.09605573118,0.2381540686,-0.7866948843,eating
1.72E+18,0.9089230957,1.073313236,-0.1687288284,0.4055271149,0.0807845518,0.2118876427,-0.712782383,eating
1.72E+18,0.9189133301,1.044759274,-0.1595015526,0.4141120911,0.05146388337,0.1764585078,-0.62046808,eating
1.72E+18,0.9289033203,0.9866695404,-0.07890802622,0.3156237602,0.02702999115,0.130034104,-0.5367820263,eating
1.72E+18,0.9388935547,0.8631305695,-0.05561619997,0.2184104919,0.01908897609,0.09338327497,-0.4726430774,eating
1.72E+18,0.9488837891,0.8081812859,-0.03256475925,0.1641273499,0.02641914412,0.07933378965,-0.4231644273,eating
1.72E+18,0.9588737793,0.7675666809,0.003177881241,0.1539607048,0.04718795046,0.05176930502,-0.3755183518,eating
1.72E+18,0.9688640137,0.756942749,0.02460408211,0.3044819832,0.06001574174,0.00167983002,-0.3242071867,eating
1.72E+18,0.978854248,0.7170233727,0.008133590221,0.5164361,0.04779879749,-0.05329642445,-0.2637332976,eating
1.72E+18,0.9888442383,0.5474710464,-0.04747903347,0.6335611343,0.01908897609,-0.09422318637,-0.1965401024,eating
1.72E+18,0.9988344727,0.3450012207,0.01867371798,0.6133885384,0.00381779531,-0.1107160673,-0.1421747059,eating
1.72E+18,1.008824463,0.1301751137,0.09232348204,0.5319318771,0.006872031838,-0.1101052165,-0.1165191159,eating
1.72E+18,1.018814697,-0.000497341156,0.1137033701,0.4782805443,0.01359135192,-0.09666658193,-0.1183516532,eating
1.72E+18,1.028804932,-0.1093640327,0.1551072598,0.4777050018,0.01053711493,-0.05085303262,-0.1433963925,eating
1.72E+18,1.038794922,-0.169816494,0.1074533463,0.3820991516,0.0007635590737,-0.01420219894,-0.1794363856,eating
1.72E+18,1.048785156,-0.169295311,0.1323486567,0.2956829071,-0.005955760833,0.005344913341,-0.2038702667,eating
1.72E+18,1.058775391,-0.1071920395,0.1193563342,0.1983523369,-0.00900999736,0.007177455351,-0.2124221325,eating
1.72E+18,1.068765381,-0.04212379456,0.02054339647,0.1365332603,-0.0114533864,-0.009315420873,-0.2057028115,eating
1.72E+18,1.078755615,0.007887363434,0.0472278595,0.07110309601,-0.01328592747,-0.03985778242,-0.189209938,eating
1.72E+18,1.08874585,0.07907581329,0.01558971405,0.0680847168,-0.01206423342,-0.07773031294,-0.1684411317,eating
1.72E+18,1.09873584,0.1082930565,-0.0316157937,0.07332706451,-0.01572931744,-0.09849911928,-0.1458397806,eating
1.72E+18,1.108726074,0.1301264763,0.01093351841,0.06422948837,-0.0114533864,-0.1003316641,-0.126903519,eating
1.72E+18,1.118716064,0.1584424973,0.02287453413,0.05329227448,0.00565033732,-0.09544488788,-0.1159082651,eating
1.72E+18,1.128706299,0.2354207039,0.04732072353,0.08125257492,0.02153236605,-0.0838387832,-0.1085781008,eating
1.72E+18,1.138696533,0.2656731606,0.02241051197,0.105091095,0.03313846514,-0.07101099193,-0.1055238619,eating
1.72E+18,1.148686523,0.2864494324,0.01199162006,0.1214213371,0.03985778242,-0.07528692484,-0.09758284688,eating
1.72E+18,1.158676758,0.2957572937,-0.0227317214,0.1632208824,0.04352286831,-0.08444963396,-0.0817008242,eating
1.72E+18,1.168666992,0.288731575,-0.07323908806,0.265900135,0.03436015919,-0.09116895497,-0.06215370819,eating
1.72E+18,1.178656982,0.281039238,-0.1045638919,0.3205308914,0.01359135192,-0.0832279399,-0.04443913698,eating
1.72E+18,1.188647217,0.2504196167,-0.07330369949,0.2523770332,-0.00167983002,-0.06245913357,-0.03405473381,eating
1.72E+18,1.198637207,0.2252187729,-0.06427931786,0.1720581055,-0.005344913341,-0.03680354729,-0.02855710872,eating
1.72E+18,1.208627441,0.1989479065,-0.08151906729,0.1990566254,-0.009620844387,-0.01114796288,-0.02122694254,eating
1.72E+18,1.218617676,0.2233395576,-0.06909418106,0.1584100723,-0.01695101149,0.008399149403,-0.009620844387,eating
1.72E+18,1.228607666,0.2158999443,-0.04142653942,0.1236658096,-0.02305948362,0.01817270555,0.0001527118147,eating
1.72E+18,1.2385979,0.2011737823,-0.03406786919,0.06140041351,-0.03038965166,0.02183778957,0.00809372589,eating
1.72E+18,1.248588135,0.184530735,0.007805764675,0.02113008499,-0.03222219273,0.01817270555,0.01725643501,eating
1.72E+18,1.258578125,0.1690139771,0.03454953432,-0.02623319626,-0.02672456764,0.005344913341,0.02947338112,eating
1.72E+18,1.268568359,0.1381440163,0.04421412945,-0.02171230316,-0.02061609551,-0.007482878864,0.03985778242,eating
1.72E+18,1.27855835,0.1249690056,0.05773985386,0.02683258057,-0.02305948362,-0.01786728203,0.04840964451,eating
1.72E+18,1.288548584,0.1304821968,0.0274258852,0.09119033813,-0.03527642787,-0.01359135192,0.05390727147,eating
1.72E+18,1.298538818,0.123726368,0.02960067987,0.07228755951,-0.04443913698,-0.008704573847,0.05879404768,eating
1.72E+18,1.308528809,0.1122450829,0.03643268347,0.04203510284,-0.04077405483,-0.007482878864,0.06368082762,eating
1.72E+18,1.318519043,0.0606675148,0.02448517084,0.06431531906,-0.03466558084,-0.004428642802,0.06856760383,eating
1.72E+18,1.328509277,0.04941082001,0.0219527483,0.1290230751,-0.03588727489,0.002901524538,0.07040014863,eating
1.72E+18,1.338499268,0.05667161942,0.03050875664,0.1482434273,-0.04504998401,0.009620844387,0.07101099193,eating
1.72E+18,1.348489502,0.04201412201,0.01219254732,0.120452404,-0.05421269313,0.01756185852,0.07345438004,eating
1.72E+18,1.358479736,-0.01079797745,0.003422141075,0.07956600189,-0.0560452342,0.02733541466,0.07406523079,eating
1.72E+18,1.368469727,-0.01894521713,-0.04981607199,0.04248285294,-0.05543438718,0.0401632078,0.07284353673,eating
1.72E+18,1.378459961,-0.0112195015,-0.04554337263,-0.002791404724,-0.05665608495,0.05054761097,0.06917845458,eating
1.72E+18,1.388449951,-0.03684473038,-0.05040377378,-0.04940795898,-0.05238015205,0.05421269313,0.06856760383,eating
1.72E+18,1.398440186,-0.04786872864,-0.05771625042,-0.02231407166,-0.04993676394,0.05299099907,0.07467607409,eating
1.72E+18,1.40843042,-0.02797365189,-0.06584441662,0.04651212692,-0.05665608495,0.05054761097,0.08200624585,eating
1.72E+18,1.418420166,-0.03597831726,-0.04218280315,0.0476102829,-0.06826218218,0.04077405483,0.08933641016,eating
1.72E+18,1.4284104,-0.06428956985,-0.01020145416,0.04097700119,-0.07375980914,0.03038965166,0.09422318637,eating
1.72E+18,1.438400879,-0.07749080658,-0.004604995251,-0.008305549622,-0.07314895838,0.02367033064,0.09422318637,eating
1.72E+18,1.448390869,-0.1095552444,0.01830452681,-0.04468917847,-0.06704048812,0.02794626169,0.08628217876,eating
1.72E+18,1.458380859,-0.1014142036,0.008999347687,-0.04945516586,-0.06215370819,0.03405473381,0.07345438004,eating
1.72E+18,1.46837085,-0.06753396988,0.02421802282,-0.06580257416,-0.05787777901,0.03527642787,0.06490252167,eating
1.72E+18,1.478361328,-0.06932878494,0.01389801502,-0.08903026581,-0.05115845799,0.03283303976,0.06306997687,eating
1.72E+18,1.488351563,-0.06382894516,-0.03796869516,-0.1284365654,-0.04382828996,0.03038965166,0.06123743951,eating
1.72E+18,1.498341309,-0.09389019012,-0.04147708416,-0.08461999893,-0.04077405483,0.03283303976,0.05818320066,eating
1.72E+18,1.508331543,-0.07680416107,-0.0661881566,-0.05060243607,-0.04321744293,0.03894151375,0.05635065958,eating
1.72E+18,1.518322021,-0.07725763321,-0.05779278278,-0.02126216888,-0.04627167806,0.04932591692,0.05696150661,eating
1.72E+18,1.528311768,-0.04596948624,-0.07367187738,0.04853773117,-0.05421269313,0.06581879407,0.05696150661,eating
1.72E+18,1.538302002,-0.02257871628,-0.02137994766,0.05383777618,-0.05909947306,0.07017108053,0.05696150661,eating
1.72E+18,1.548291992,-0.02243423462,-0.007801055908,0.03495836258,-0.06093201414,0.06093201414,0.05757235363,eating
1.72E+18,1.558282471,-0.03958177567,0.02634704113,0.06692743301,-0.06520794332,0.0401632078,0.05879404768,eating
1.72E+18,1.568272461,-0.06178760529,0.02156633139,0.05221033096,-0.07253811508,0.01695101149,0.06123743951,eating
1.72E+18,1.578262451,-0.06339836121,0.04945886135,0.02483415604,-0.0798682794,-0.001374406274,0.05818320066,eating
1.72E+18,1.588252686,-0.08797740936,0.02753847837,-0.01427173615,-0.08353336155,-0.00809372589,0.0520747304,eating
1.72E+18,1.59824292,-0.09580850601,0.0253264308,-0.04314041138,-0.08108997345,-0.00565033732,0.04657710344,eating
1.72E+18,1.60823291,-0.08601808548,0.007173001766,-0.02331924438,-0.07681404054,0.01267508045,0.04352286831,eating
1.72E+18,1.618223145,-0.08045196533,0.01784610748,0.01404666901,-0.07559234649,0.03588727489,0.04046862945,eating
1.72E+18,1.628213135,-0.09474515915,0.005072653294,-0.04260015488,-0.07437065244,0.04871506989,0.03741439432,eating
1.72E+18,1.638203369,-0.07304000854,0.04015237093,-0.08683395386,-0.07131642103,0.04321744293,0.03191677108,eating
1.72E+18,1.648193604,-0.02872371674,0.02722847462,0.01182985306,-0.07681404054,0.0193943996,0.03069507517,eating
1.72E+18,1.658183594,0.0221619606,0.008046925068,0.02894926071,-0.09513945878,-0.01603474095,0.03741439432,eating
1.72E+18,1.668173828,0.0652885437,-0.02161663771,-0.003399372101,-0.1073564067,-0.05024218559,0.04535540938,eating
1.72E+18,1.678164063,0.1041083336,-0.06254082918,-0.0007705688477,-0.1036913246,-0.06551336497,0.04963133857,eating
1.72E+18,1.688154053,0.1606612206,-0.0769340992,0.03750371933,-0.09697200358,-0.06001574174,0.05879404768,eating
1.72E+18,1.698144287,0.1570253372,-0.0888800621,0.1008758545,-0.08964183182,-0.02397575416,0.07040014863,eating
1.72E+18,1.708134521,0.1263885498,-0.09062111378,0.06246995926,-0.07925742865,0.02305948362,0.07345438004,eating
1.72E+18,1.718124512,0.08451128006,-0.07253730297,0.01958703995,-0.07070557028,0.05482354015,0.06795676053,eating
1.72E+18,1.728114746,0.05906391144,-0.0544475317,0.03926229477,-0.06948387623,0.06520794332,0.06429167092,eating
1.72E+18,1.738104736,0.1176028252,-0.006849169731,0.02938604355,-0.07620319724,0.04932591692,0.06917845458,eating
1.72E+18,1.748094971,0.1282229424,-0.04362863302,-0.03888988495,-0.0823116675,0.01511846948,0.0813953951,eating
1.72E+18,1.758085205,0.1320400238,-0.05505013466,-0.04005241394,-0.08353336155,-0.02336490713,0.09910997003,eating
1.72E+18,1.768075195,0.2064466476,-0.05320692062,0.001575946808,-0.08292251825,-0.05635065958,0.1174353883,eating
1.72E+18,1.77806543,0.2268981934,-0.05750989914,0.08132171631,-0.08658760041,-0.07650861889,0.1363716573,eating
1.72E+18,1.788055664,0.2539348602,0.002850055695,0.1574454308,-0.09208522737,-0.07528692484,0.1516428292,eating
1.72E+18,1.798045654,0.2319974899,0.04978838563,0.1675348282,-0.09086353332,-0.05635065958,0.1638597846,eating
1.72E+18,1.808035889,0.2037296295,0.1026902497,0.1814198494,-0.08475505561,-0.03008422814,0.1766875684,eating
1.72E+18,1.818025879,0.101231575,0.09831118584,0.1941413879,-0.0798682794,-0.006872031838,0.1809635013,eating
1.72E+18,1.828016113,-0.01383590698,0.106472373,0.1597661972,-0.07925742865,-0.00381779531,0.1699682474,eating
1.72E+18,1.838006348,-0.06427001953,0.1231002957,0.155479908,-0.08108997345,-0.02214321308,0.1418692768,eating
1.72E+18,1.847996338,0.03915548325,0.09383389354,0.234246254,-0.09025268257,-0.05146388337,0.105829291,eating
1.72E+18,1.857986572,0.1750130653,-0.04118794203,0.3931603432,-0.112243183,-0.06612421572,0.0832279399,eating
1.72E+18,1.867976807,0.3430171013,-0.08615377545,0.5359764099,-0.13362284,-0.05390727147,0.0838387832,eating
1.72E+18,1.877966797,0.5126390457,-0.05165407062,0.5772566795,-0.1403421611,-0.01908897609,0.09727742523,eating
1.72E+18,1.887957031,0.6683974266,-0.03452089429,0.5880665779,-0.1354553849,0.03344388679,0.1082726792,eating
1.72E+18,1.897947021,0.8440036774,-0.03195217252,0.5991225243,-0.1342336833,0.07933378965,0.1119377613,eating
1.72E+18,1.907937256,1.000718117,-0.05358201265,0.7432456017,-0.155613333,0.1031568274,0.1339282542,eating
1.72E+18,1.91792749,1.086148262,-0.0382514298,0.8098478317,-0.1831014603,0.106821917,0.1944021434,eating
1.72E+18,1.92791748,1.053760529,-0.03823561966,0.7212171555,-0.1965401024,0.08788564801,0.2695363462,eating
1.72E+18,1.937907715,0.9323344231,-0.0663408041,0.6817440987,-0.2063136548,0.05787777901,0.3312319219,eating
1.72E+18,1.947897949,0.7909808159,0.04184623063,0.6841459274,-0.2166980654,0.03771981969,0.3672719002,eating
1.72E+18,1.957887939,0.7396845818,0.1157962382,0.6414804459,-0.231358394,0.03161134571,0.3776563108,eating
1.72E+18,1.967878174,0.6995587349,0.0814640373,0.5542955399,-0.2405211031,0.02183778957,0.3831539452,eating
1.72E+18,1.977868408,0.7451243401,0.1524727046,0.5090532303,-0.2386885732,-0.01053711493,0.4033119082,eating
1.72E+18,1.987858398,0.8168363571,0.1609622389,0.5492196083,-0.2441861928,-0.0520747304,0.4356867969,eating
1.72E+18,1.997848633,0.9178752899,0.1096430868,0.7214283943,-0.2741177082,-0.07834116369,0.4869979918,eating
1.72E+18,2.007838623,0.8605246544,0.1683710515,0.7138586044,-0.3022166789,-0.08689302206,0.5505260825,eating
1.72E+18,2.017828857,0.8181700706,0.2288455069,0.579934597,-0.3083251417,-0.07956285775,0.6116108298,eating
1.72E+18,2.027819092,0.6400837898,0.234436512,0.4016780853,-0.3003841341,-0.07406523079,0.6537593007,eating
1.72E+18,2.037809082,0.5381531715,0.3771653771,0.3001890182,-0.2790044844,-0.1009425074,0.6684195995,eating
1.72E+18,2.047799316,0.6716060638,0.5025177598,0.2715244293,-0.2631224692,-0.1846285909,0.6458182931,eating
1.72E+18,2.057789551,0.9914894104,0.5635796785,0.4515480995,-0.2680092454,-0.3202366829,0.5926745534,eating
1.72E+18,2.067779541,1.570712566,0.5805068612,0.687526226,-0.2973299026,-0.4857762754,0.5346440673,eating
1.72E+18,2.077769775,2.17843914,0.4868965745,1.090102196,-0.3553603888,-0.6360446811,0.5150969625,eating
1.72E+18,2.087759766,2.85876894,0.3514494896,1.550260544,-0.4573718905,-0.7343910933,0.569462359,eating
1.72E+18,2.09775,3.347128391,0.1385923028,1.765663147,-0.5770979524,-0.7930324674,0.7178982496,eating
1.72E+18,2.107740234,3.500296116,-0.08140224218,1.643425941,-0.6632274389,-0.7936432958,0.9378032684,eating
1.72E+18,2.117730225,3.400458336,-0.2727857828,1.315778732,-0.7023980021,-0.7191199064,1.184585571,eating
1.72E+18,2.127720459,2.972044468,-0.4479377866,0.9209890366,-0.6962895393,-0.5725166202,1.422205091,eating
1.72E+18,2.137710693,2.342365265,-0.4028158188,0.5704507828,-0.6485670805,-0.3898732662,1.612789512,eating
1.72E+18,2.147700684,1.700520039,-0.1495734453,0.3370170593,-0.5868715048,-0.2127275616,1.730072141,eating
1.72E+18,2.157690918,1.193937778,0.01029443741,0.05094623566,-0.5312843919,-0.07284353673,1.762447,eating
1.72E+18,2.167680908,0.9309234619,0.1304242611,-0.1357584,-0.4921901822,-0.0282516852,1.717244387,eating
1.72E+18,2.177671143,0.919470787,0.2540802956,-0.1350669861,-0.478140682,-0.1070509851,1.634169102,eating
1.72E+18,2.187661377,1.225206852,0.276081562,0.08316516876,-0.5172349215,-0.2451024652,1.565754294,eating
1.72E+18,2.197651367,1.574952126,-0.07158470154,0.3638734818,-0.6113054156,-0.3935383558,1.573695302,eating
1.72E+18,2.207641602,1.725839615,-0.4304332733,0.3702974319,-0.7017871737,-0.5157077909,1.686702013,eating
1.72E+18,2.217631836,1.588719845,-0.7717397213,0.1846570969,-0.7543200254,-0.5902311802,1.860182643,eating
1.72E+18,2.227621826,1.089557648,-1.000958562,-0.2342863083,-0.7763105035,-0.6439857483,2.014116049,eating
1.72E+18,2.237612061,0.25532341,-1.169784307,-0.3099966049,-0.8190698028,-0.7380561829,2.078942299,eating
1.72E+18,2.247602295,-0.6573777199,-0.8481879234,-0.4330329895,-0.9174162149,-0.837013483,2.039848089,eating
1.72E+18,2.257592285,-1.664200783,-0.5861957073,-0.7377195358,-1.040196538,-0.8919897079,1.910272121,eating
1.72E+18,2.26758252,-2.421886444,-0.5098521709,-1.079782486,-1.127547741,-0.8785510659,1.739234805,eating
1.72E+18,2.27757251,-2.865681887,-0.6490442753,-1.511408329,-1.129380226,-0.7557707429,1.551093936,eating
1.72E+18,2.287562744,-3.023225069,-0.9513931274,-1.749544144,-1.054856896,-0.5322006941,1.353179336,eating
1.72E+18,2.297552979,-2.887941837,-1.235985756,-1.963078499,-0.949180305,-0.2353289127,1.165038466,eating
1.72E+18,2.307542969,-2.669148922,-1.770305872,-2.122311115,-0.8459470868,0.05482354015,1.021489382,eating
1.72E+18,2.317533203,-2.473202229,-2.040325165,-2.293012619,-0.7476006746,0.2760266066,0.9555178285,eating
1.72E+18,2.327523438,-2.392481565,-2.127442837,-2.522116661,-0.6528429985,0.4110238552,0.9659022093,eating
1.72E+18,2.337513428,-2.436334133,-2.188720703,-2.666316032,-0.5538857579,0.4495072365,1.010494113,eating
1.72E+18,2.347503662,-2.437604904,-1.991878033,-2.768849373,-0.4506525695,0.3908658922,1.034927964,eating
1.72E+18,2.357493652,-2.216711998,-1.388369083,-2.772114277,-0.3492519259,0.2937411666,1.013548255,eating
1.72E+18,2.367483887,-1.90564537,-1.070170879,-2.567480087,-0.2637332976,0.2241045833,0.9378032684,eating
1.72E+18,2.377474121,-1.280670643,-0.9385499954,-2.242854118,-0.1989834905,0.1624090075,0.827239871,eating
1.72E+18,2.387464111,-0.2172722816,-0.9450550079,-1.864318371,-0.148894012,0.05848862603,0.7429429889,eating
1.72E+18,2.397454346,0.7780313492,-1.115848541,-1.314297199,-0.10796725,-0.08811471611,0.7637118101,eating
1.72E+18,2.40744458,1.858517647,-1.379444361,-0.7943577766,-0.07742489129,-0.2060082406,0.896265626,eating
1.72E+18,2.41743457,2.744139194,-1.656441212,-0.3379201889,-0.06520794332,-0.2371614426,1.105175376,eating
1.72E+18,2.427424805,3.051003456,-1.683280945,-0.1875429153,-0.02916795574,-0.1192679256,1.335464835,eating
1.72E+18,2.437414795,3.095277786,-1.344175577,-0.2009215355,0.04840964451,0.1172063202,1.533379316,eating
1.72E+18,2.447405029,3.168386936,-0.6675877571,-0.2224340439,0.1766875684,0.4183540046,1.670209169,eating
1.72E+18,2.457395264,3.65377903,0.6799139977,-0.6004037857,0.3416163325,0.7023980021,1.668987393,eating
1.72E+18,2.467385254,5.184078217,1.97403574,-1.42860508,0.4570664763,0.7549308538,1.541931152,eating
1.72E+18,2.477375488,6.517817497,2.570624828,-2.273100376,0.4906630516,0.5466319323,1.447860718,eating
1.72E+18,2.487365723,7.242955685,2.052968979,-2.739686489,0.4680617154,0.1721825749,1.427091956,eating
1.72E+18,2.497355713,8.853631973,2.376969337,-3.096680164,0.4320217371,-0.2762556672,1.610346079,eating
1.72E+18,2.507345947,8.970150948,0.9968509674,-2.139229774,0.3293993771,-0.8608365059,2.072833776,eating
1.72E+18,2.517336182,8.250899315,-1.356599092,-0.8532605171,0.1217113137,-1.538266063,2.670853376,eating
1.72E+18,2.527326172,6.77828598,-2.556634665,-0.05868959427,-0.1507265568,-2.118571043,3.235276222,eating
1.72E+18,2.537316406,4.134827614,-3.217123508,0.4834804535,-0.4121691883,-2.364742517,3.65065217,eating
1.72E+18,2.547306396,1.359642267,-3.457687378,0.4556446075,-0.6039752364,-2.212030649,3.828408957,eating
1.72E+18,2.557296631,-1.188988924,-3.782852173,-0.3296527863,-0.6320741773,-1.706859946,3.790536404,eating
1.72E+18,2.567286865,-3.238803387,-4.318138599,-1.502100945,-0.4659237564,-1.048366666,3.595065117,eating
1.72E+18,2.577276855,-4.68769455,-4.841304779,-2.516342163,-0.1629435122,-0.4778352678,3.332400799,eating
1.72E+18,2.58726709,-5.229759216,-5.117651463,-3.587944031,0.1901262105,-0.1363716573,3.078899145,eating
1.72E+18,2.597257324,-5.085961819,-5.338654041,-3.667875767,0.4570664763,-0.07773031294,2.858994246,eating
1.72E+18,2.607247314,-4.184620857,-4.350416183,-2.732590675,0.592063725,-0.3513898849,2.690400362,eating
1.72E+18,2.617237549,-2.212508678,-3.494596243,-1.544986248,0.5938962698,-0.8602256775,2.545629501,eating
1.72E+18,2.627227539,-0.1733572185,-3.582282543,-0.8017067909,0.4430169761,-1.490009189,2.464997768,eating
1.72E+18,2.637217773,1.222514033,-3.586284399,-0.5153112411,0.2707580328,-2.192483425,2.579837084,eating
1.72E+18,2.647208008,2.083606243,-3.346767664,-0.4751634598,0.1351499557,-2.87121129,2.919468164,eating
1.72E+18,2.657197998,2.191431046,-3.245158911,-0.2972846031,0.009315420873,-3.427693129,3.386766195,eating
1.72E+18,2.667188232,1.498083353,-3.59567523,0.02394676208,-0.1317902952,-3.774654388,3.830241442,eating
1.72E+18,2.677178467,0.4173327684,-3.699656963,0.7811365128,-0.2863346636,-3.713569641,4.137497425,eating
1.72E+18,2.687168457,-1.096776485,-3.245085955,0.6361160278,-0.3675773442,-3.238330364,4.252947807,eating
1.72E+18,2.697158691,-2.473318338,-3.030169487,0.484664917,-0.3700207174,-2.605416298,4.148492813,eating
1.72E+18,2.707148682,-3.813353539,-2.83762002,-0.1571855545,-0.3547495604,-2.010451078,3.831463099,eating
1.72E+18,2.717138916,-4.863803864,-2.036108255,-0.2800650597,-0.3718532622,-1.501004457,3.41303277,eating
1.72E+18,2.72712915,-5.774905205,-1.736779928,-0.3907346725,-0.4518742561,-1.183363795,2.924965858,eating
1.72E+18,2.737119141,-6.594339371,-1.337850332,-0.5715947151,-0.571600318,-1.036760569,2.392917871,eating
1.72E+18,2.747109375,-7.101399899,-1.135632753,-1.090696335,-0.6755207181,-0.9078717232,1.841246367,eating
1.72E+18,2.757099609,-7.031077385,-1.172908306,-1.677388668,-0.6981220841,-0.7753179073,1.306144118,eating
1.72E+18,2.7670896,-6.528575897,-1.244239569,-2.115146637,-0.6088619828,-0.6568135023,0.837013483,eating
1.72E+18,2.777079834,-5.874369621,-1.585497379,-2.200126648,-0.4909684956,-0.5651864409,0.4711159468,eating
1.72E+18,2.787070068,-5.107710838,-1.989025593,-1.929429054,-0.4042281806,-0.4863871336,0.2170034945,eating
1.72E+18,2.797060059,-4.194807053,-2.201639414,-1.222008228,-0.3645231128,-0.3862081766,0.05635065958,eating
1.72E+18,2.807050293,-3.499671459,-2.448423624,-0.9270768166,-0.3571929336,-0.2341072112,-0.04871506989,eating
1.72E+18,2.817040283,-3.051158428,-2.621524334,-0.8660883904,-0.3272614181,-0.01420219894,-0.1256818175,eating
1.72E+18,2.827030518,-2.757772446,-2.50510025,-1.068682671,-0.2435753495,0.2393757701,-0.2038702667,eating
1.72E+18,2.837020752,-2.533704758,-2.317682028,-1.412454128,-0.1238492802,0.4574482441,-0.2973299026,eating
1.72E+18,2.847010742,-2.321969032,-1.939094067,-1.591841698,0.01053711493,0.6144359708,-0.3920112252,eating
1.72E+18,2.857000977,-2.093054295,-1.377763987,-1.646214962,0.1339282542,0.6920135617,-0.487303406,eating
1.72E+18,2.866991211,-1.767590046,-0.8251185417,-1.623372555,0.2286095917,0.6852942705,-0.594201684,eating
1.72E+18,2.876981201,-1.245264053,-0.2813205719,-1.411327839,0.2866400778,0.6046624184,-0.7048413754,eating
1.72E+18,2.886971436,-0.4996602535,-0.1803498268,-1.068198204,0.2982461751,0.4660001099,-0.7897491455,eating
1.72E+18,2.896961426,0.3049042225,-0.2985978127,-0.710960865,0.2750339806,0.296795398,-0.8062420487,eating
1.72E+18,2.90695166,1.090022326,-0.4667387009,-0.1415395737,0.229220435,0.1489703804,-0.7372162938,eating
1.72E+18,2.916941895,1.568215847,-0.6320929527,0.18816185,0.1815743446,0.06833853573,-0.5972558856,eating
1.72E+18,2.926931885,1.763180256,-0.7494888306,0.2920475006,0.1553079188,0.05238015205,-0.4353813827,eating
1.72E+18,2.936922119,1.682297468,-0.7852554321,0.3311190605,0.1461452097,0.06642963737,-0.2918322682,eating
1.72E+18,2.946912354,1.36295104,-0.6236143112,0.2336797714,0.1455343664,0.07811209559,-0.1855448484,eating
1.72E+18,2.956902344,0.9213819504,-0.4273180962,0.2144989967,0.1424801201,0.04077405483,-0.1324011385,eating
1.72E+18,2.966892578,0.4604697227,-0.1417107582,0.09478330612,0.1284306347,-0.05696150661,-0.1232384369,eating
1.72E+18,2.976882568,0.02530241013,0.04105520248,-0.02442169189,0.1174353883,-0.1724116355,-0.1458397806,eating
1.72E+18,2.986872803,-0.2904736996,0.0995182991,-0.09004259109,0.1174353883,-0.2542651594,-0.1989834905,eating
1.72E+18,2.996863037,-0.4644804001,-0.02570819855,-0.1265535355,0.1235438585,-0.2689255178,-0.2680092454,eating
1.72E+18,3.006853027,-0.4629435539,-0.300306797,-0.009774208069,0.1278197914,-0.2231119573,-0.3254288733,eating
1.72E+18,3.016843262,-0.2994394302,-0.4775276184,0.2326688766,0.1174353883,-0.1345391124,-0.3413109183,eating
1.72E+18,3.026833496,-0.1884076595,-0.5904307365,0.337872982,0.09666658193,-0.03130592033,-0.3193204105,eating
1.72E+18,3.036823486,-0.1644716263,-0.7002768517,0.2655816078,0.08017370105,0.07078192383,-0.2796153426,eating
1.72E+18,3.046813721,-0.1887698174,-0.7289619446,0.09295368195,0.08628217876,0.136753425,-0.238077715,eating
1.72E+18,3.056803955,-0.3059742451,-0.6546897888,0.0408949852,0.1046075895,0.1581330895,-0.2050919682,eating
1.72E+18,3.066793945,-0.4911277294,-0.5532946587,0.038854599,0.1143811494,0.1526354551,-0.1959292591,eating
1.72E+18,3.07678418,-0.7140238285,-0.4864821434,-0.02226877213,0.1143811494,0.1379751265,-0.220363155,eating
1.72E+18,3.08677417,-0.9513027668,-0.4776659012,-0.04812383652,0.105829291,0.1049893722,-0.2838912606,eating
1.72E+18,3.096764404,-1.134863377,-0.415687561,-0.1316308975,0.09055810422,0.07383616269,-0.366966486,eating
1.72E+18,3.106754639,-1.240317583,-0.4628725052,-0.2209615707,0.078952007,0.06093201414,-0.4555393457,eating
1.72E+18,3.116744629,-1.261756659,-0.5965943336,-0.3361554146,0.07711946964,0.06093201414,-0.5441122055,eating
1.72E+18,3.126734863,-1.245522261,-0.7918772697,-0.4230847359,0.0807845518,0.07689040154,-0.6229115129,eating
1.72E+18,3.136725098,-1.233085871,-1.031501293,-0.4226694107,0.08017370105,0.1135412306,-0.6859050989,eating
1.72E+18,3.146715088,-1.231942892,-1.26793623,-0.2968196869,0.06612421572,0.1660740972,-0.7317186594,eating
1.72E+18,3.156705322,-1.26355052,-1.345234394,-0.2993426323,0.06062658876,0.2204395086,-0.7744779587,eating
1.72E+18,3.166695313,-1.406270504,-1.49248147,-0.228096962,0.06551336497,0.2943520248,-0.8282325268,eating
1.72E+18,3.176685547,-1.653676987,-1.497473478,-0.3253116608,0.07345438004,0.3963635266,-0.9064210057,eating
1.72E+18,3.186675781,-1.867072344,-1.600084066,-0.3805346489,0.08200624585,0.5063160062,-1.017595172,eating
1.72E+18,3.196665771,-2.042611122,-1.703281164,-0.4692754745,0.08200624585,0.6071057916,-1.155035853,eating
1.72E+18,3.206656006,-2.127041817,-1.688050508,-0.7047743797,0.07589777559,0.6877376437,-1.302250028,eating
1.72E+18,3.21664624,-2.194875002,-1.69265461,-1.061591148,0.07101099193,0.7366054654,-1.451907635,eating
1.72E+18,3.22663623,-2.221996546,-1.859271526,-1.452527046,0.07101099193,0.7500441074,-1.599732637,eating
1.72E+18,3.236626465,-2.212254047,-2.085028648,-1.829592705,0.08628217876,0.7292752862,-1.731064796,eating
1.72E+18,3.246616455,-2.211941719,-2.362635136,-2.102252483,0.1174353883,0.6761315465,-1.835519671,eating
1.72E+18,3.256606689,-2.215616226,-2.480255365,-2.211372375,0.1559187621,0.6077166796,-1.90698874,eating
1.72E+18,3.266596924,-2.347719908,-2.508750439,-2.225344181,0.2047865391,0.5521295667,-1.968073487,eating
1.72E+18,3.276586914,-2.548608303,-2.46218729,-2.136645794,0.267092973,0.5380800962,-2.06641984,eating
1.72E+18,3.286577148,-2.65861845,-2.470162868,-2.104262352,0.3312319219,0.5802285671,-2.224629402,eating
1.72E+18,3.296567383,-2.691882372,-2.572679043,-2.085938454,0.3972034156,0.6822400093,-2.420100451,eating
1.72E+18,3.306557373,-2.668895721,-2.715283871,-2.074909687,0.469283402,0.826399982,-2.621069193,eating
1.72E+18,3.316547607,-2.602675915,-2.879022837,-2.170841694,0.5468609929,0.9662840366,-2.803712606,eating
1.72E+18,3.326537842,-2.485772133,-3.014287233,-2.443752766,0.6250494719,1.066462994,-2.953370094,eating
1.72E+18,3.336527832,-2.392959595,-3.176847458,-2.782248974,0.705070436,1.113498211,-3.067598581,eating
1.72E+18,3.346518066,-2.234571934,-3.446140766,-3.075887203,0.7930324674,1.084788322,-3.147008657,eating
1.72E+18,3.356508057,-2.035783291,-3.558190823,-3.229441166,0.8883246183,0.9852202535,-3.186713696,eating
1.72E+18,3.366498291,-2.042929888,-3.492442608,-2.901948929,0.9775083065,0.8862630129,-3.19893074,eating
1.72E+18,3.376488525,-2.283335686,-3.16350317,-2.543620586,1.066081166,0.8783220053,-3.249631166,eating
1.72E+18,3.386478516,-2.403558016,-3.189197063,-2.288454533,1.12838757,0.9925504327,-3.406695127,eating
1.72E+18,3.39646875,-2.298893213,-3.507512093,-2.108887196,1.153432369,1.184356451,-3.641871452,eating
1.72E+18,3.406458984,-2.139881134,-3.65931654,-2.012962818,1.183363795,1.373719096,-3.861165524,eating
1.72E+18,3.416448975,-2.004961252,-3.687922001,-1.956712723,1.230399132,1.553919077,-4.009601593,eating
1.72E+18,3.426439209,-1.911397457,-3.726144791,-1.945878506,1.282931924,1.723123789,-4.112834454,eating
1.72E+18,3.436429199,-1.886504054,-3.880933762,-2.119686604,1.325691223,1.858121037,-4.227674007,eating
1.72E+18,3.446419434,-1.876466513,-3.96654439,-2.588726521,1.344016671,1.932033539,-4.359005928,eating
1.72E+18,3.456409668,-1.91936326,-4.101371765,-3.151661396,1.345849276,1.947915554,-4.469569206,eating
1.72E+18,3.466399658,-1.570755959,-4.194576263,-3.370590687,1.342184186,1.895382643,-4.506831169,eating
1.72E+18,3.476389893,-1.203451157,-4.199356079,-3.378432274,1.372115612,1.797647119,-4.450022221,eating
1.72E+18,3.486380127,-1.060624599,-4.20668745,-3.390190125,1.460077643,1.71212852,-4.361449242,eating
1.72E+18,3.496370117,-0.8124411106,-4.20301342,-3.289787292,1.570641041,1.621723175,-4.306473255,eating
1.72E+18,3.506360352,-0.3591959476,-4.176014423,-2.760559559,1.64882946,1.495277762,-4.302808285,eating
1.72E+18,3.516350586,0.3443717957,-4.165875435,-1.951739311,1.649440289,1.334624887,-4.3186903,eating
1.72E+18,3.526340576,1.093764782,-4.192054749,-1.201654911,1.56392169,1.137932062,-4.293645382,eating
1.72E+18,3.536330811,1.857336044,-4.111125469,-0.5154447556,1.460688472,0.9589538574,-4.172086716,eating
1.72E+18,3.546320801,2.371398926,-4.101941109,-0.1819648743,1.422205091,0.8764894605,-3.976004839,eating
1.72E+18,3.556311035,2.774508476,-4.186247349,-0.02683830261,1.461910248,0.9033667445,-3.760986567,eating
1.72E+18,3.56630127,3.214104652,-4.016425133,0.1583051682,1.552315593,0.9839985967,-3.553909302,eating
1.72E+18,3.57629126,3.844436646,-3.788251638,0.366106987,1.643942714,1.001102328,-3.376152754,eating
1.72E+18,3.586281494,4.355087757,-3.528632641,1.247063637,1.667765737,0.9394067526,-3.219088793,eating
1.72E+18,3.596271729,5.116969109,-3.123249531,2.345710278,1.589577317,0.8893172741,-3.137845993,eating
1.72E+18,3.606261719,6.298694611,-3.194954395,3.183948994,1.397160411,0.8691592813,-3.158614874,eating
1.72E+18,3.616251953,7.407266617,-3.413070202,3.627452374,1.149156451,0.9039775729,-3.169610023,eating
1.72E+18,3.626241943,8.203691483,-3.320203066,3.719041348,0.9536852837,0.9760575891,-3.0291152,eating
1.72E+18,3.636232178,8.510808945,-3.094092369,3.339299679,0.8669449687,1.020038605,-2.727356672,eating
1.72E+18,3.646222412,8.325856209,-2.85221982,2.862623215,0.8565605879,1.018816829,-2.364513397,eating
1.72E+18,3.656212402,7.690187931,-2.263658524,2.410990715,0.8571714163,0.9742250443,-2.022439003,eating
1.72E+18,3.666202637,6.804991722,-1.455809355,2.141597748,0.8205205798,0.8997016549,-1.741449237,eating
1.72E+18,3.676192871,5.934949875,-0.7533810139,1.808777332,0.7325585485,0.7811973095,-1.545978069,eating
1.72E+18,3.686182861,5.132408142,-0.2167556286,1.444108486,0.6109999418,0.6089383364,-1.423197746,eating
1.72E+18,3.696173096,4.484147549,0.1787564754,1.029695034,0.4753918648,0.3890333474,-1.327294707,eating
1.72E+18,3.706163086,4.078205585,0.3754854202,1.049062729,0.3385621011,0.1556897014,-1.221618176,eating
1.72E+18,3.71615332,3.898087502,0.4366710186,1.081261635,0.215781793,0.01328592747,-1.151981592,eating
1.72E+18,3.726143555,4.034165382,0.2485058308,0.977850914,0.1198787764,-0.01847812906,-1.139764667,eating
1.72E+18,3.736133545,4.344279289,0.2025542259,1.04771328,0.07956285775,0.01878355257,-1.126936793,eating
1.72E+18,3.746123779,4.839160919,0.3191714287,1.135083199,0.09788827598,0.1110978425,-1.064630389,eating
1.72E+18,3.756114014,5.315179825,0.38666749,1.458604813,0.1418692768,0.2149418741,-0.9461260438,eating
1.72E+18,3.766104004,5.833113194,0.568748951,1.770000458,0.1815743446,0.2467059344,-0.7683694959,eating
1.72E+18,3.776094238,6.272295952,0.9828317165,2.031044006,0.2322746664,0.143472746,-0.5465555787,eating
1.72E+18,3.786084473,6.766426086,1.853147388,2.596395016,0.2829749882,-0.1516428292,-0.3327590525,eating
1.72E+18,3.796074463,7.091583729,2.12204051,3.9145298,0.1858502775,-0.4876088202,-0.1238492802,eating
1.72E+18,3.806064697,6.546742916,1.700432897,4.563598633,-0.1739387512,-0.6665870547,0.1626380831,eating
1.72E+18,3.816054688,4.908816814,1.267194152,3.258852005,-0.5923691392,-0.5969504714,0.5132644176,eating
1.72E+18,3.826044922,2.86232996,0.7391569614,1.049333572,-0.7243884802,-0.3385621011,0.7655443549,eating
1.72E+18,3.836035156,1.087239742,0.2914025784,-0.7836384773,-0.5795413256,0.01572931744,0.8254073858,eating
1.72E+18,3.846025146,-0.1734461784,0.2570014,-1.843539715,-0.3510844707,0.3945309818,0.7191199064,eating
1.72E+18,3.856015381,-0.8929481506,0.4101452827,-2.105901718,-0.1806580722,0.6779640913,0.5407525301,eating
1.72E+18,3.866005615,-1.207326889,0.4964089394,-2.039390087,-0.10796725,0.7787538767,0.3752129376,eating
1.72E+18,3.875995605,-1.401555538,0.3983616829,-1.9365201,-0.106745556,0.6999546289,0.2542651594,eating
1.72E+18,3.88598584,-1.497656345,0.3122653961,-1.910009384,-0.1385096163,0.5099810958,0.1760767251,eating
1.72E+18,3.89597583,-1.520153046,0.1811001301,-1.921804428,-0.1702736765,0.2772482932,0.1345391124,eating
1.72E+18,3.905966064,-1.402606964,0.088326931,-1.881688118,-0.175771296,0.06520794332,0.1302631795,eating
1.72E+18,3.915956299,-1.341567039,-0.04532122612,-1.799365997,-0.144618094,-0.0813953951,0.1375933439,eating
1.72E+18,3.925946289,-1.29700613,-0.1429495811,-1.593200207,-0.08780929446,-0.1485885978,0.1302631795,eating
1.72E+18,3.935936523,-1.222369671,-0.159137249,-1.348118782,-0.01634016447,-0.1583621502,0.09849911928,eating
1.72E+18,3.945926758,-1.095852375,-0.1545066833,-1.092626572,0.06368082762,-0.1675248593,0.04902049154,eating
1.72E+18,3.955916748,-0.827401638,-0.1145932674,-0.5725922585,0.140036732,-0.1986780763,-0.008399149403,eating
1.72E+18,3.965906982,-0.4271965027,-0.02279067039,-0.07049846649,0.1907370538,-0.2609844804,-0.05726693198,eating
1.72E+18,3.975896973,-0.03657865524,-0.1589975357,0.5936279297,0.1980672181,-0.3324536085,-0.07314895838,eating
1.72E+18,3.985887207,0.3241581917,-0.3114483356,1.145529747,0.1620272398,-0.3721587062,-0.03894151375,eating
1.72E+18,3.995877441,0.5085539818,-0.4730873108,1.37460041,0.1229330078,-0.3819322586,0.03558185324,eating
1.72E+18,4.005867432,0.51552248,-0.6039206982,1.461121559,0.08689302206,-0.3446705639,0.1253764033,eating
1.72E+18,4.015857666,0.2315292358,-0.728777647,1.239489079,0.06490252167,-0.2499892414,0.2072299272,eating
1.72E+18,4.0258479,-0.1210122108,-0.6809828281,0.92471838,0.07467607409,-0.1388150454,0.2554868758,eating
1.72E+18,4.035837891,-0.4446253777,-0.4694187641,0.6696867943,0.09544488788,-0.03558185324,0.2567085624,eating
1.72E+18,4.045828125,-0.6737737656,-0.3109791279,0.4742498398,0.09788827598,0.03405473381,0.2188360244,eating
1.72E+18,4.055818359,-0.7227611542,-0.25218153,0.4154305458,0.07223268598,0.04566083103,0.1663031727,eating
1.72E+18,4.06580835,-0.6870203018,-0.1397020817,0.4540987015,0.02336490713,0.01572931744,0.1211004704,eating
1.72E+18,4.075798584,-0.5873742104,-0.05617213249,0.3906869888,-0.03222219273,-0.03069507517,0.08994726092,eating
1.72E+18,4.085788574,-0.522936821,0.004702329636,0.3389811516,-0.06765133142,-0.06368082762,0.06001574174,eating
1.72E+18,4.095778809,-0.406744957,0.0115442276,0.3294200897,-0.08292251825,-0.07406523079,0.02153236605,eating
1.72E+18,4.105769043,-0.2623138428,0.04845905304,0.3706254959,-0.09575030953,-0.05818320066,-0.02061609551,eating
1.72E+18,4.115759033,-0.1210827827,0.05502653122,0.4237008095,-0.1091889441,-0.0099262679,-0.05238015205,eating
1.72E+18,4.125749268,0.005460739136,0.004230260849,0.4300980568,-0.1183516532,0.05726693198,-0.06398624927,eating
1.72E+18,4.135739502,0.09381246567,0.005478382111,0.3775477409,-0.1220167428,0.1141520813,-0.05787777901,eating
1.72E+18,4.145729492,0.1246547699,0.04216790199,0.2671046257,-0.1183516532,0.1416402012,-0.04627167806,eating
1.72E+18,4.155719727,0.1800403595,0.09312391281,0.1731233597,-0.1152974218,0.1306449622,-0.0426065959,eating
1.72E+18,4.165709717,0.2607073784,0.1199684143,0.1456270218,-0.1214058921,0.0805554837,-0.04871506989,eating
1.72E+18,4.175699951,0.4672455788,0.1601514816,0.2465658188,-0.1433963925,-0.00381779531,-0.06154286116,eating
1.72E+18,4.185690186,0.7075948715,0.1543567181,0.3354253769,-0.1843231618,-0.1094943732,-0.06520794332,eating
1.72E+18,4.195680176,1.048952579,0.1340479851,0.5450534821,-0.2344126403,-0.2279987335,-0.04504998401,eating
1.72E+18,4.20567041,1.448262691,0.08212542534,0.7763485909,-0.2930539846,-0.3599417508,0.01236965694,eating
1.72E+18,4.215660645,1.696711063,0.0707526207,0.9644694328,-0.3486410677,-0.4588989913,0.1076618284,eating
1.72E+18,4.225650635,1.812073231,0.05487418175,1.098601341,-0.3883461356,-0.5065450668,0.2170034945,eating
1.72E+18,4.235640869,1.827320576,0.06074285507,1.253756046,-0.4078932703,-0.5065450668,0.3122956753,eating
1.72E+18,4.245630859,1.781312943,0.0551803112,1.4028759,-0.4127800465,-0.4405735731,0.3800997138,eating
1.72E+18,4.255621094,1.823273182,-0.002449274063,1.464014053,-0.4133908749,-0.3465031087,0.4124746025,eating
1.72E+18,4.265611328,1.922187805,-0.09021162987,1.457023621,-0.4274403751,-0.2799207568,0.4204156399,eating
1.72E+18,4.275601318,2.094645977,-0.1381373405,1.495210171,-0.4567610323,-0.2774773538,0.4381301999,eating
1.72E+18,4.285591553,2.305969715,-0.1540780067,1.511397362,-0.5056288242,-0.3587200642,0.4815003574,eating
1.72E+18,4.295581787,2.540464878,-0.1960129738,1.470016003,-0.580763042,-0.5163186193,0.5407525301,eating
1.72E+18,4.305571777,2.803632259,-0.2149423361,1.480966568,-0.6852942705,-0.7148439884,0.622606039,eating
1.72E+18,4.315562012,2.938202381,-0.2258073092,1.582826614,-0.7824189663,-0.9164236188,0.7246175408,eating
1.72E+18,4.325552246,3.078111649,-0.1235922575,1.673524857,-0.861829102,-1.075243831,0.809525311,eating
1.72E+18,4.335542236,3.277187824,-0.1752450466,1.774054527,-0.9546779394,-1.20657599,0.8590039611,eating
1.72E+18,4.345532471,3.497216225,-0.2547724247,1.830207825,-1.057911038,-1.333632231,0.909704268,eating
1.72E+18,4.355522461,3.800812244,-0.3553818464,1.868117332,-1.139153838,-1.439308882,1.003774762,eating
1.72E+18,4.365512695,4.109826565,-0.5882213116,1.869538307,-1.197184324,-1.500393629,1.165038466,eating
1.72E+18,4.37550293,4.207008839,-0.7687237263,1.890762329,-1.225283265,-1.503447771,1.37639153,eating
1.72E+18,4.38549292,4.202373028,-0.8731894493,1.851890564,-1.227726579,-1.438087106,1.593853235,eating
1.72E+18,4.395483154,3.992123127,-0.9422003031,1.812877655,-1.221007347,-1.31958282,1.782605052,eating
1.72E+18,4.405473389,3.70253706,-0.9744173288,1.759989738,-1.210622907,-1.182752967,1.903552771,eating
1.72E+18,4.415463379,3.398453236,-0.8767425418,1.676255226,-1.213066339,-1.097234368,1.951198816,eating
1.72E+18,4.425453613,3.345840454,-0.7170879841,1.647204399,-1.251549721,-1.127776742,1.947533727,eating
1.72E+18,4.435443604,3.52700901,-0.7362800241,1.580361366,-1.331570625,-1.259719729,1.9603616,eating
1.72E+18,4.445433838,3.713596821,-0.8924051523,1.612688065,-1.432971358,-1.454580069,2.026333094,eating
1.72E+18,4.455424072,3.99418211,-1.05597353,1.623981476,-1.533761144,-1.639055848,2.158352375,eating
1.72E+18,4.465414063,4.006790638,-1.356602669,1.685832977,-1.630275011,-1.742899895,2.334887266,eating
1.72E+18,4.475404297,3.892347574,-1.431158304,1.58220768,-1.70846343,-1.774053097,2.52119565,eating
1.72E+18,4.485394531,3.64860487,-1.49593842,1.332022667,-1.734729886,-1.691588759,2.689178705,eating
1.72E+18,4.495384521,3.392705441,-1.766565919,1.041014671,-1.71212852,-1.503447771,2.821121693,eating
1.72E+18,4.505374756,3.15858984,-1.870202303,0.7735652924,-1.657763124,-1.273769259,2.917024612,eating
1.72E+18,4.515364746,2.750281096,-1.861564398,0.4369850159,-1.582018018,-1.048977494,2.986050367,eating
1.72E+18,4.52535498,2.268491507,-1.797007322,0.1740150452,-1.506273031,-0.8858812451,3.016592741,eating
1.72E+18,4.535345215,1.895788431,-1.560453176,-0.3394899368,-1.459848642,-0.8547280431,2.983607054,eating
1.72E+18,4.545335205,1.795255423,-1.440002084,-0.9138288498,-1.468400478,-1.033095479,2.901142597,eating
1.72E+18,4.555325439,1.712774515,-1.594415069,-1.44184351,-1.522765875,-1.417929173,2.826008558,eating
1.72E+18,4.565315674,1.881443739,-1.789387345,-1.682567596,-1.606451988,-1.961583257,2.80096364,eating
1.72E+18,4.575305664,2.224407434,-2.188564062,-1.482581139,-1.756109476,-2.531503677,2.85716176,eating
1.72E+18,4.585295898,2.574651003,-2.649040461,-0.9332685471,-1.974792838,-2.992769718,3.006819248,eating
1.72E+18,4.595286133,2.854875326,-3.119656086,-0.2690105438,-2.235013723,-3.237719536,3.209009647,eating
1.72E+18,4.605276123,2.986515284,-3.483510971,-0.007789611816,-2.479963541,-3.270094395,3.41303277,eating
1.72E+18,4.615266357,2.709473133,-3.622118235,-0.1332740784,-2.633897066,-3.07706666,3.58284831,eating
1.72E+18,4.625256348,2.194355249,-3.486240387,-0.4685506821,-2.65038991,-2.64825201,3.686692238,eating
1.72E+18,4.635246582,2.032455683,-3.229118109,-1.004853249,-2.550210953,-2.075200796,3.715402126,eating
1.72E+18,4.645236816,1.4338305,-3.615894794,-1.195634842,-2.430484772,-1.661046386,3.628661871,eating
1.72E+18,4.655226807,1.127752662,-3.609902382,-1.702967644,-2.350463867,-1.468018651,3.450905323,eating
1.72E+18,4.665217041,0.7233556509,-3.608188868,-2.077913761,-2.330916882,-1.47901392,3.261542559,eating
1.72E+18,4.675207275,0.2927895784,-3.496848106,-2.541388512,-2.346798897,-1.625006437,3.112495899,eating
1.72E+18,4.685197266,0.1940636635,-3.357081652,-3.281547546,-2.338857889,-1.810093164,3.012927771,eating
1.72E+18,4.6951875,0.5769338608,-3.183438778,-3.806045532,-2.239900589,-2.055042982,2.944512844,eating
1.72E+18,4.70517749,0.5840303898,-3.842457294,-4.436810017,-2.146440983,-2.279834747,2.91397047,eating
1.72E+18,4.715167725,0.6232907772,-4.286871433,-4.971367836,-2.063976526,-2.417886257,2.962838173,eating
1.72E+18,4.725157959,0.7963864803,-4.202720165,-4.709826469,-1.97051692,-2.497296333,3.094781399,eating
1.72E+18,4.735147949,0.8136763573,-4.396715164,-4.374323845,-1.876446366,-2.536390543,3.249936581,eating
1.72E+18,4.745138184,0.7143921852,-4.419412613,-3.767508507,-1.828800321,-2.554105043,3.337287664,eating
1.72E+18,4.755128418,0.5477285385,-4.243036747,-3.303171873,-1.835519671,-2.508902311,3.32507062,eating
1.72E+18,4.765118408,0.05039072037,-4.420397758,-3.015943289,-1.857510209,-2.381846189,3.2291677,eating
1.72E+18,4.775108643,-0.4434604645,-4.466486931,-3.014920712,-1.8361305,-2.152778387,3.093559504,eating
1.72E+18,4.785098633,-0.8734650612,-4.19994688,-2.985806704,-1.726788878,-1.847965717,2.946345329,eating
1.72E+18,4.795088867,-1.04668951,-4.385345936,-3.000066996,-1.542923808,-1.576749444,2.774697304,eating
1.72E+18,4.805079102,-1.230522633,-4.432932854,-2.889250755,-1.350506902,-1.362342119,2.578004599,eating
1.72E+18,4.815069092,-1.221500874,-4.201699257,-2.782316685,-1.197184324,-1.175422788,2.384976864,eating
1.72E+18,4.825059326,-1.143131256,-3.746812344,-2.495099068,-1.095783591,-1.037371397,2.235929966,eating
1.72E+18,4.835049561,-1.308111668,-3.293753386,-2.133230209,-1.042029023,-0.9781191945,2.138194561,eating
1.72E+18,4.845039551,-1.39179039,-2.808017492,-1.999774456,-1.018816829,-0.9768974781,2.054508448,eating
1.72E+18,4.855029785,-1.379936218,-2.416544199,-1.968817234,-0.9913287163,-0.9610154629,1.935316801,eating
1.72E+18,4.86502002,-1.511807442,-2.25181365,-1.975417614,-0.949180305,-0.8901571631,1.761225343,eating
1.72E+18,4.87501001,-1.646673203,-2.199553251,-1.922239065,-0.8691592813,-0.7704311013,1.561478257,eating
1.72E+18,4.885000244,-1.577629089,-2.03151536,-1.773713112,-0.7482115626,-0.6128324866,1.364785433,eating
1.72E+18,4.894990234,-1.544861317,-1.943204165,-1.556907892,-0.6235223413,-0.4527905285,1.187639832,eating
1.72E+18,4.904980469,-1.546233177,-1.881647825,-1.325707197,-0.5233433843,-0.295802772,1.039203882,eating
1.72E+18,4.914970703,-1.626573563,-1.773645639,-0.973205328,-0.4537068009,-0.1791309565,0.9042066336,eating
1.72E+18,4.924960693,-1.766192913,-1.580025434,-0.8743638992,-0.4078932703,-0.1168245375,0.7704311013,eating
1.72E+18,4.934950928,-2.002101421,-1.330471992,-0.9214777946,-0.366966486,-0.07834116369,0.6317687631,eating
1.72E+18,4.944941162,-2.186044216,-1.025966167,-0.9562578201,-0.3150444627,-0.05024218559,0.4778352678,eating
1.72E+18,4.954931152,-2.234688282,-0.8467321396,-0.918598175,-0.251516372,-0.03436015919,0.3061871827,eating
1.72E+18,4.964921387,-2.085364342,-0.7395815849,-0.8936645985,-0.1837123185,-0.03374931216,0.1382041872,eating
1.72E+18,4.974911377,-1.665607452,-0.8381164074,-0.8655893803,-0.1256818175,-0.078952007,0.00809372589,eating
1.72E+18,4.984901611,-1.29175663,-1.054329872,-0.7687664032,-0.08780929446,-0.1589729935,-0.05787777901,eating
1.72E+18,4.994891846,-0.9625339508,-1.242647886,-0.6947693825,-0.05971032009,-0.2560977042,-0.05971032009,eating
1.72E+18,5.004881836,-0.7628788948,-1.415665865,-0.4144153595,-0.05482354015,-0.3373403847,-0.02428117767,eating
1.72E+18,5.01487207,-0.7602825165,-1.554826736,-0.1818404198,-0.07620319724,-0.3330644667,0.01908897609,eating
1.72E+18,5.024862305,-0.9182519913,-1.381587982,-0.1189651489,-0.08597674966,-0.2377723008,0.04535540938,eating
1.72E+18,5.034852295,-1.025734901,-1.105638027,-0.3561835289,-0.0536018461,-0.08017370105,0.03313846514,eating
1.72E+18,5.044842529,-1.020897388,-0.9221229553,-0.5901799202,0.01175880991,0.09888090193,-0.01634016447,eating
1.72E+18,5.05483252,-0.9604139328,-0.7416236401,-0.5734741688,0.08689302206,0.2839676142,-0.09208522737,eating
1.72E+18,5.064822754,-0.683716774,-0.6846389771,-0.5044960976,0.1516428292,0.4391228259,-0.1776038408,eating
1.72E+18,5.074812988,-0.5655236244,-0.6242067814,-0.4490523338,0.1962346882,0.5283065438,-0.2521272004,eating
1.72E+18,5.084802979,-0.396630764,-0.5474259853,-0.4375998974,0.2194468826,0.5600705743,-0.3028275371,eating
1.72E+18,5.094793213,-0.3197956085,-0.5159933567,-0.4173569679,0.229220435,0.5344150066,-0.3407000601,eating
1.72E+18,5.104783447,-0.1813983917,-0.4220294952,-0.5008144379,0.2328855246,0.4507289231,-0.3712424338,eating
1.72E+18,5.114773438,-0.05355930328,-0.4459276199,-0.6213259697,0.2396048307,0.3383330107,-0.3865135908,eating
1.72E+18,5.124763672,0.1012187004,-0.4066753387,-0.6944255829,0.253654331,0.2094442546,-0.3840702176,eating
1.72E+18,5.134753906,0.2502193451,-0.4061970711,-0.6986618042,0.2701472044,0.07689040154,-0.3700207174,eating
1.72E+18,5.144743896,0.3373131752,-0.4709758759,-0.6241123676,0.2768665254,-0.02519745007,-0.353527844,eating
1.72E+18,5.154734131,0.3578457832,-0.4940719604,-0.4909844398,0.2750339806,-0.07711946964,-0.3407000601,eating
1.72E+18,5.164724121,0.229060173,-0.4884853363,-0.4053778648,0.2768665254,-0.05390727147,-0.3431434333,eating
1.72E+18,5.174714355,-0.08329200745,-0.4894585609,-0.5539703369,0.3031329513,0.05971032009,-0.3852919042,eating
1.72E+18,5.18470459,-0.4026699066,-0.5783543587,-0.7484345436,0.3568875194,0.2350998372,-0.4818057716,eating
1.72E+18,5.19469458,-0.6681542397,-0.6565470695,-1.037031174,0.4246915579,0.4446204603,-0.6168029904,eating
1.72E+18,5.204684814,-0.8284368515,-0.9329283237,-1.220724106,0.4900522232,0.6504759789,-0.7708128691,eating
1.72E+18,5.214675049,-0.9041032791,-1.27265501,-1.354417324,0.5480827093,0.8276216984,-0.9180271029,eating
1.72E+18,5.224665039,-0.9031157494,-1.626530886,-1.530767679,0.591452837,0.9766684175,-1.044472456,eating
1.72E+18,5.234655273,-0.8480563164,-1.974617243,-1.491267204,0.604891479,1.109833121,-1.145262241,eating
1.72E+18,5.244645264,-0.8418688774,-2.11762619,-1.384227991,0.6000047326,1.257658124,-1.222839832,eating
1.72E+18,5.254635498,-0.9517807961,-2.098035336,-1.356103659,0.6091674566,1.448242545,-1.302250028,eating
1.72E+18,5.264625732,-1.147213459,-2.057224512,-1.449361563,0.6421532035,1.701133251,-1.410980821,eating
1.72E+18,5.274615723,-1.3363657,-2.115066051,-1.481068611,0.691631794,2.016941309,-1.554529905,eating
1.72E+18,5.284605957,-1.430670261,-2.28482914,-1.376054764,0.7533273697,2.368178368,-1.717015266,eating
1.72E+18,5.294596191,-1.562679291,-2.301706553,-1.432510853,0.8205205798,2.741482496,-1.88194406,eating
1.72E+18,5.304586182,-1.741810322,-2.272880793,-1.483925819,0.8638907075,3.120207787,-2.043818474,eating
1.72E+18,5.314576416,-1.725300312,-2.049368858,-1.410900593,0.9115368128,3.421355486,-2.228905201,eating
1.72E+18,5.324566406,-1.823455334,-2.117346287,-1.46171999,0.9359707236,3.658364296,-2.447588682,eating
1.72E+18,5.334556641,-2.044115067,-2.107379913,-1.639932632,0.9048175216,3.955235958,-2.673602104,eating
1.72E+18,5.344546875,-2.278062105,-2.028141975,-1.886286259,0.8620582223,4.329074383,-2.923438549,eating
1.72E+18,5.354536865,-2.442051649,-2.217432499,-2.179619789,0.805249393,4.762775898,-3.202595711,eating
1.72E+18,5.3645271,-2.513775587,-2.584416628,-2.628616333,0.7191199064,5.217857361,-3.495268106,eating
1.72E+18,5.374517334,-2.243693829,-2.697866917,-3.180929184,0.6775823236,5.547180176,-3.792139769,eating
1.72E+18,5.384507324,-1.903382897,-3.271431208,-3.31661129,0.6678087711,5.680345058,-4.048695564,eating
1.72E+18,5.394497559,-1.592513919,-3.63516283,-3.407940865,0.6513158679,5.613762856,-4.187968731,eating
1.72E+18,5.404487793,-1.40729022,-3.64185977,-3.354247093,0.6317687631,5.344302654,-4.175140858,eating
1.72E+18,5.414477783,-1.405073643,-3.556874275,-2.924166203,0.6103891134,4.968631744,-4.035867691,eating
1.72E+18,5.424468018,-1.577144861,-3.380421162,-2.582540989,0.605502367,4.536151886,-3.87277174,eating
1.72E+18,5.434458008,-1.718065739,-3.217817783,-2.296454906,0.6085565686,4.054804325,-3.77381444,eating
1.72E+18,5.444448242,-2.039106131,-3.038483381,-2.177894115,0.591452837,3.629654408,-3.765262604,eating
1.72E+18,5.454438477,-2.458071709,-3.209668159,-1.963240147,0.5181511641,3.340112925,-3.833066463,eating
1.72E+18,5.464428467,-2.648175955,-3.567800045,-1.626842022,0.3831539452,3.146474123,-3.924082756,eating
1.72E+18,5.474418701,-2.631361008,-3.572438955,-1.456364632,0.1974563748,3.010255337,-3.986999989,eating
1.72E+18,5.484408936,-2.451046944,-3.620442152,-1.763771534,0.03069507517,2.837996483,-4.017542362,eating
1.72E+18,5.494398926,-2.138221025,-3.9903965,-2.269593239,-0.07070557028,2.591137648,-4.010212421,eating
1.72E+18,5.50438916,-1.619511366,-4.275062084,-2.447085381,-0.1311794519,2.305871964,-3.908811569,eating
1.72E+18,5.51437915,-1.075635433,-4.174240589,-2.29127121,-0.1659977436,2.026103973,-3.690739155,eating
1.72E+18,5.524369385,-0.582930088,-4.008068085,-2.054662704,-0.1507265568,1.82208097,-3.417079449,eating
1.72E+18,5.534359619,-0.00723695755,-3.866281271,-1.959492683,-0.04077405483,1.6766994,-3.177551031,eating
1.72E+18,5.544349609,0.3521909714,-3.785486698,-1.786476135,0.1589729935,1.548421502,-3.023617506,eating
1.72E+18,5.554339844,0.4785695076,-3.568207264,-1.622438431,0.4118637741,1.487947583,-2.944818258,eating
1.72E+18,5.564330078,0.5502209663,-3.048894405,-1.473640919,0.6867450476,1.52826345,-2.917941093,eating
1.72E+18,5.574320068,0.6939506531,-2.66932416,-1.303320885,0.9390249252,1.58812654,-2.940542459,eating
1.72E+18,5.584310303,0.4379143715,-2.611892223,-1.237071514,1.086849928,1.668758392,-2.985744953,eating
1.72E+18,5.594300537,0.529604435,-2.361363888,-1.000658989,1.128998399,1.677310228,-3.010789871,eating
1.72E+18,5.604290527,0.8614816666,-2.150570154,-0.486946106,1.105786204,1.550864816,-2.986355782,eating
1.72E+18,5.614280762,1.044313431,-1.85219276,0.07566070557,1.042868972,1.376162529,-2.947261572,eating
1.72E+18,5.624270752,1.277911663,-1.685331225,0.6414055824,0.9298622608,1.237500191,-2.941153288,eating
1.72E+18,5.634260986,1.468958378,-1.483486414,1.166661263,0.7551599145,1.232613444,-2.981469154,eating
1.72E+18,5.644251221,1.408156872,-1.744212389,1.159831047,0.4876088202,1.399985552,-3.057825089,eating
1.72E+18,5.654241211,2.740124702,-1.31265831,1.35093689,0.3055763543,1.362112999,-3.189768076,eating
1.72E+18,5.664231445,3.807061672,-1.362489223,1.232429504,0.2793098986,1.015151739,-3.295444489,eating
1.72E+18,5.67422168,4.446752548,-1.544106007,0.8228216171,0.3293993771,0.5710658431,-3.245355129,eating
1.72E+18,5.68421167,4.742682934,-1.97872448,0.3859214783,0.3330644667,0.1379751265,-2.991853476,eating
1.72E+18,5.694201904,5.021147728,-1.975774407,0.2268810272,0.3361186981,-0.2988570333,-2.619847536,eating
1.72E+18,5.704191895,4.720057487,-1.725508928,0.3118028641,0.38498649,-0.6366555691,-2.244176388,eating
1.72E+18,5.714182129,3.993213177,-1.260015845,0.6618032455,0.4271349311,-0.71423316,-1.968073487,eating
1.72E+18,5.724172363,3.223809242,-0.7722141147,0.8156599998,0.4485146105,-0.5242596865,-1.886219978,eating
1.72E+18,5.734162354,2.78472805,-0.5096749663,1.136196613,0.4393518865,-0.173633337,-1.971738577,eating
1.72E+18,5.744152588,2.511828899,-0.128606379,1.444106579,0.3886515796,0.2534252703,-2.180037498,eating
1.72E+18,5.754142822,2.636735439,-0.03792405128,1.135649681,0.2823641598,0.6297071576,-2.461027145,eating
1.72E+18,5.764132813,2.969079494,-0.2311248779,0.57467556,0.1504211426,0.8062420487,-2.706587791,eating
1.72E+18,5.774123047,3.611504078,-0.3159211874,0.04855060577,0.01969982497,0.7286643982,-2.817151308,eating
1.72E+18,5.784113037,4.36899519,-0.6909554005,-0.4653530121,-0.09086353332,0.4110238552,-2.72430253,eating
1.72E+18,5.794103271,5.216315269,-1.067847371,-0.7050337791,-0.1433963925,-0.05696150661,-2.408494473,eating
1.72E+18,5.804093506,5.686373711,-1.283631802,-0.8149032593,-0.1220167428,-0.5548020005,-1.911264658,eating
1.72E+18,5.814083496,5.556535244,-1.438693047,-0.605784893,-0.04321744293,-1.001942158,-1.33340323,eating
1.72E+18,5.82407373,4.937889099,-0.8561737537,-0.04744577408,0.07101099193,-1.236507535,-0.8318976164,eating
1.72E+18,5.834063965,4.331299305,0.04421234131,0.359099865,0.1644706279,-1.143658757,-0.644367516,eating
1.72E+18,5.844053955,4.448631287,0.9080345631,0.5211291313,0.1968455315,-0.8547280431,-0.8147938848,eating
1.72E+18,5.854044189,5.370481014,1.706729054,0.885281086,0.2139492482,-0.5279247165,-1.140375495,eating
1.72E+18,5.864034424,7.001644611,2.33700037,1.444775581,0.2463241518,-0.364828527,-1.408537388,eating
1.72E+18,5.874024414,9.050121307,2.523841858,2.644679546,0.2060082406,-0.4350759685,-1.489780068,eating
1.72E+18,5.884014648,10.95434189,1.747741222,4.289716721,-0.05787777901,-0.5596888065,-1.289422154,eating
1.72E+18,5.894004883,11.19916725,0.4828970432,4.578789234,-0.498298645,-0.489441365,-0.743935585,eating
1.72E+18,5.903994873,9.233365059,-0.7363004684,2.351685524,-0.6993437409,-0.1687465608,-0.07925742865,eating
1.72E+18,5.913985107,6.956952572,-1.269689083,0.01309156418,-0.4701996744,0.1617981642,0.3617742956,eating
1.72E+18,5.923975098,4.947303772,-0.9530563354,-1.120605946,-0.169051975,0.3957526684,0.569462359,eating
1.72E+18,5.933965576,3.362123966,-0.2935771942,-1.061136723,-0.07437065244,0.5105919242,0.6952968836,eating
1.72E+18,5.943955811,2.139568329,0.04407405853,-0.9129357338,-0.1495048702,0.4366794229,0.7948650122,eating
1.72E+18,5.953945557,0.8978834152,0.06327986717,-1.301246166,-0.260068208,0.212498486,0.8583931327,eating
1.72E+18,5.963935791,-0.1478133202,0.05711913109,-1.912434101,-0.3290939629,-0.03374931216,0.8797727823,eating
1.72E+18,5.973925781,-0.8672065735,0.2795879841,-2.36579895,-0.3596363366,-0.2182251811,0.8583931327,eating
1.72E+18,5.98391626,-1.78570652,-0.2757296562,-2.216012478,-0.373685807,-0.3868190348,0.7569924593,eating
1.72E+18,5.993906494,-1.892401695,-0.1573703289,-2.262831688,-0.3565820754,-0.40270105,0.6177192926,eating
1.72E+18,6.00389624,-2.038184643,-0.1362378597,-2.214948177,-0.3138227761,-0.2951919436,0.471726805,eating
1.72E+18,6.013886475,-1.97783041,-0.2575268745,-2.110258102,-0.2551814318,-0.1479777545,0.3416163325,eating
1.72E+18,6.023876953,-1.701721191,-0.455009222,-1.947741985,-0.1745496094,-0.02336490713,0.24693501,eating
1.72E+18,6.033866943,-1.394405365,-0.6690437794,-1.77624464,-0.07131642103,0.04749337584,0.2121167034,eating
1.72E+18,6.043857178,-1.107981205,-0.6304231882,-1.447696686,0.02214321308,0.05299099907,0.24693501,eating
1.72E+18,6.053846924,-0.919760704,-0.5924614668,-1.12304306,0.08872556686,-0.01053711493,0.3184041381,eating
1.72E+18,6.063837402,-0.9182677269,-0.5418909788,-0.8166131973,0.1333174109,-0.1021642014,0.3843756318,eating
1.72E+18,6.073827637,-0.9782681465,-0.4338997602,-0.5260167122,0.1608055383,-0.1895153672,0.4075878263,eating
1.72E+18,6.083817627,-1.039189339,-0.1817566156,-0.3393292427,0.1718007922,-0.2689255178,0.3678827584,eating
1.72E+18,6.093807861,-0.9976658821,-0.02718913555,-0.01271009445,0.1626380831,-0.3434488773,0.2768665254,eating
1.72E+18,6.103798096,-0.7080979347,0.04057753086,0.5031385422,0.1217113137,-0.4173613787,0.1754658818,eating
1.72E+18,6.113788086,-0.2769908905,0.1666790247,0.9427318573,0.0545181185,-0.4839437306,0.09361234307,eating
1.72E+18,6.12377832,0.2346496582,0.1984351873,1.287691116,-0.007788302377,-0.5450284481,0.04596625641,eating
1.72E+18,6.133768555,0.7179322243,0.02371263504,1.59862566,-0.05787777901,-0.5651864409,0.04657710344,eating
1.72E+18,6.143758545,1.095556736,-0.1877555847,1.451368809,-0.06581879407,-0.513875246,0.09422318637,eating
1.72E+18,6.153748779,1.353678703,-0.1505023241,1.44230938,-0.01389677543,-0.4338542521,0.1498102844,eating
1.72E+18,6.16373877,1.453044415,-0.2964792252,1.492389679,-0.0004581354442,-0.3403946459,0.2243336588,eating
1.72E+18,6.173729004,1.265779495,-0.4253659248,1.314958572,-0.03710897267,-0.2310529798,0.3300102353,eating
1.72E+18,6.183719238,0.8352651596,-0.3829231262,0.8540534973,-0.0560452342,-0.1504211426,0.4320217371,eating
1.72E+18,6.193709229,0.33618927,-0.3078249693,0.4416422844,-0.05238015205,-0.08628217876,0.4815003574,eating
1.72E+18,6.203699463,-0.05180120468,-0.1723875999,0.1165571213,-0.05421269313,-0.04535540938,0.4668400288,eating
1.72E+18,6.213689697,-0.3139600754,-0.01814770699,-0.06908464432,-0.06948387623,-0.03985778242,0.4143071473,eating
1.72E+18,6.223679688,-0.4333591461,0.1121762991,-0.1566066742,-0.09452861547,-0.07345438004,0.3471139669,eating
1.72E+18,6.233669922,-0.451128006,0.165471673,-0.2010974884,-0.1317902952,-0.1388150454,0.2768665254,eating
1.72E+18,6.243659912,-0.4224233627,0.1642290354,-0.2436418533,-0.1794363856,-0.2078407854,0.2194468826,eating
1.72E+18,6.253650146,-0.3046679497,0.1475135088,-0.2199215889,-0.220363155,-0.2457133085,0.1937913001,eating
1.72E+18,6.263640381,-0.2207784653,0.0582306385,-0.2677907944,-0.2374668717,-0.2414373755,0.1901262105,eating
1.72E+18,6.273630371,-0.1859583855,0.002178311348,-0.1951236725,-0.2386885732,-0.1913478971,0.1950129867,eating
1.72E+18,6.283620605,-0.2234148979,0.08268547058,-0.1938090324,-0.231358394,-0.1149920002,0.1980672181,eating
1.72E+18,6.29361084,-0.2962474823,0.1698180437,-0.3238887787,-0.2112004459,-0.04902049154,0.1882936656,eating
1.72E+18,6.30360083,-0.3349819183,0.2120181322,-0.391409874,-0.1855448484,-0.01725643501,0.1693574041,eating
1.72E+18,6.313591064,-0.3296937943,0.280577302,-0.3706746101,-0.1653869003,-0.02641914412,0.1516428292,eating
1.72E+18,6.323581299,-0.2994937897,0.4104468822,-0.3933849335,-0.1543916464,-0.07162184268,0.1363716573,eating
1.72E+18,6.333571289,-0.3453187943,0.4612363577,-0.3368182182,-0.148894012,-0.1394258887,0.1052184403,eating
1.72E+18,6.343561523,-0.3176813126,0.4767332673,-0.335919857,-0.1507265568,-0.2212794125,0.05696150661,eating
1.72E+18,6.353551514,-0.2102851868,0.4269590378,-0.2683343887,-0.1653869003,-0.2945810854,0.01603474095,eating
1.72E+18,6.363541748,0.01369380951,0.3649557829,-0.1238884926,-0.1904316396,-0.3544441164,-0.005344913341,eating
1.72E+18,6.373531982,0.2264122963,0.2794053555,0.04534196854,-0.2240282297,-0.4033119082,-0.00900999736,eating
1.72E+18,6.383521973,0.4114713669,0.1832667589,0.1598334312,-0.2594573796,-0.4259132445,0.006872031838,eating
1.72E+18,6.393512207,0.4505982399,0.1355805397,0.1613278389,-0.2710634768,-0.3965925872,0.0227540601,eating
1.72E+18,6.403502441,0.5221748352,0.04209518433,0.1015911102,-0.2478512824,-0.3159607351,0.01908897609,eating
1.72E+18,6.413492432,0.5867872238,-0.01874089241,0.05123615265,-0.2044811249,-0.2194468826,0.008704573847,eating
1.72E+18,6.423482666,0.7626109123,-0.00998032093,0.2453398705,-0.1647760421,-0.1418692768,0.01298050396,eating
1.72E+18,6.433472656,0.9909753799,0.07794678211,0.4240698814,-0.1458397806,-0.1174353883,0.0282516852,eating
1.72E+18,6.443462891,1.232551575,0.1445794106,0.6389493942,-0.1592784226,-0.1779092699,0.04352286831,eating
1.72E+18,6.453453125,1.521817207,0.1872045994,0.8557224274,-0.2057028115,-0.3190149665,0.06429167092,eating
1.72E+18,6.463443115,1.817474365,0.2699925303,1.00844717,-0.2728960216,-0.5187620521,0.1039967462,eating
1.72E+18,6.47343335,2.111382008,0.3146437407,1.12493515,-0.3431434333,-0.7380561829,0.1675248593,eating
1.72E+18,6.483423584,2.456253052,0.3266478181,1.381947041,-0.4176668227,-0.9255862832,0.253654331,eating
1.72E+18,6.493413574,2.760967255,0.3925914764,1.728905678,-0.4970769584,-1.0434798,0.3636068404,eating
1.72E+18,6.503403809,3.05049324,0.3679293394,1.913518906,-0.5630484819,-1.074022174,0.4698942602,eating
1.72E+18,6.513393799,3.377340794,0.2297542095,1.89010334,-0.6021426916,-1.004996419,0.5590779781,eating
1.72E+18,6.523384033,3.640865803,0.09070849419,1.820915222,-0.6094728708,-0.8706100583,0.6482616663,eating
1.72E+18,6.533374268,3.953904152,0.02996623516,1.772969723,-0.6009209752,-0.7747070193,0.7533273697,eating
1.72E+18,6.543364258,4.279708862,0.008214950562,1.75365448,-0.6113054156,-0.791810751,0.8907679915,eating
1.72E+18,6.553354492,4.539518356,-0.07985240221,1.731989861,-0.6522321701,-0.9286405444,1.073411345,eating
1.72E+18,6.563344727,4.639840603,-0.05963778496,1.723201752,-0.704230547,-1.139993668,1.284764528,eating
1.72E+18,6.573334717,4.596535206,0.04975007474,1.582447052,-0.744546473,-1.350125194,1.472905397,eating
1.72E+18,6.583324951,4.584537029,0.04422331601,1.353826523,-0.7756996751,-1.518718958,1.61340034,eating
1.72E+18,6.593315186,4.494329929,-0.1262227744,1.193115234,-0.8007444143,-1.651883721,1.730682969,eating
1.72E+18,6.603305176,4.531558514,-0.1206418425,1.342573166,-0.834951818,-1.775885701,1.860793471,eating
1.72E+18,6.61329541,4.680431366,-0.09944611788,1.715381622,-0.9161945581,-1.874232054,2.016559601,eating
1.72E+18,6.6232854,4.707007408,-0.2210616469,2.02983284,-1.036531448,-1.935927629,2.180342913,eating
1.72E+18,6.633275635,4.595590115,-0.1993343234,2.091679573,-1.152592421,-1.939592719,2.330000401,eating
1.72E+18,6.643265869,4.41105032,-0.3348552585,1.938160896,-1.225894094,-1.882784009,2.454002619,eating
1.72E+18,6.653255859,4.210018635,-0.4535726905,1.734704018,-1.250327945,-1.762447,2.539521217,eating
1.72E+18,6.663246094,4.101639748,-0.5348325968,1.58117485,-1.255825639,-1.640888453,2.579837084,eating
1.72E+18,6.673236328,4.206023693,-0.6072069407,1.308196068,-1.265599132,-1.5602566,2.612211943,eating
1.72E+18,6.683226318,4.245942116,-0.8809695244,0.8764781952,-1.286368012,-1.63477993,2.69101119,eating
1.72E+18,6.693216553,4.372857094,-0.9538769722,0.4399986267,-1.305304289,-1.961583257,2.848609924,eating
1.72E+18,6.703206543,4.166109085,-1.067100406,-0.1736803055,-1.299195766,-2.423383713,3.042248487,eating
1.72E+18,6.713196777,3.989175081,-1.138770938,-0.7080965042,-1.280870318,-2.905418634,3.188241005,eating
1.72E+18,6.723187012,4.153642654,-1.438395262,0.2447099686,-1.374329925,-3.267040253,3.304301977,eating
1.72E+18,6.733177002,4.856599331,-1.47075963,1.743652344,-1.688305497,-3.450905323,3.449072599,eating
1.72E+18,6.743167236,5.240966797,-1.576060534,2.453092575,-2.074360847,-3.450905323,3.623164177,eating
1.72E+18,6.753157471,5.347843647,-2.015130997,2.253364563,-2.337025166,-3.185797453,3.788092852,eating
1.72E+18,6.763147461,5.20915699,-2.714249134,1.554434776,-2.424987316,-2.729494572,3.914538383,eating
1.72E+18,6.773137695,4.725708961,-3.320596457,0.7112092972,-2.37734127,-2.240129709,4.012884617,eating
1.72E+18,6.78312793,4.141769886,-3.538445473,-0.01361751556,-2.277773142,-1.832083583,4.106955051,eating
1.72E+18,6.79311792,3.583968639,-3.633178711,-0.4710206985,-2.197751999,-1.607291818,4.206523418,eating
1.72E+18,6.803108154,2.840045452,-3.553604841,-0.5303134918,-2.163544655,-1.536433578,4.282268524,eating
1.72E+18,6.813098145,2.421107769,-2.656325817,-1.121221066,-2.148884296,-1.513832211,4.321362495,eating
1.72E+18,6.823088379,1.184290767,-2.723753452,-1.053154469,-2.175761461,-1.580414534,4.255391121,eating
1.72E+18,6.833078613,0.6048017144,-2.772200346,-1.790840626,-2.216688395,-1.628671527,4.048313618,eating
1.72E+18,6.843068604,0.3069067001,-2.800109148,-2.495497704,-2.241122246,-1.629282355,3.776486874,eating
1.72E+18,6.853058838,0.2194570303,-3.302333593,-2.69803524,-2.257004261,-1.6030159,3.546808243,eating
1.72E+18,6.863049072,0.4812483788,-3.954185009,-2.599994659,-2.297320127,-1.554148197,3.426471233,eating
1.72E+18,6.873039063,0.8938155174,-4.39631176,-2.490088463,-2.357794046,-1.523605824,3.430747271,eating
1.72E+18,6.883029297,0.9319853783,-4.723430634,-2.141309738,-2.432928324,-1.482068181,3.510157347,eating
1.72E+18,6.893019287,0.4119288921,-4.695420265,-1.905232906,-2.519057751,-1.358066201,3.561468601,eating
1.72E+18,6.903009521,-0.129114151,-4.019292831,-2.044707298,-2.600911379,-1.185807228,3.522374392,eating
1.72E+18,6.912999756,-0.7696096897,-3.376166105,-2.379499912,-2.674823761,-0.9988879561,3.376992702,eating
1.72E+18,6.922989746,-1.488934994,-3.468066454,-2.871278286,-2.702922821,-0.7802046537,3.120436907,eating
1.72E+18,6.93297998,-2.125263691,-4.014050007,-3.292310715,-2.633897066,-0.5719057322,2.750874281,eating
1.72E+18,6.942970215,-2.175361633,-4.002664566,-3.812886715,-2.432928324,-0.3428380191,2.311675072,eating
1.72E+18,6.952960205,-1.707411289,-4.072465897,-4.128816605,-2.15438199,-0.1553079188,1.905385256,eating
1.72E+18,6.962950439,-1.006369114,-4.410558701,-4.077441216,-1.889885068,-0.04046862945,1.66654408,eating
1.72E+18,6.97294043,-0.3039135933,-4.888951778,-3.115378857,-1.745114207,-0.03497100621,1.639666796,eating
1.72E+18,6.982930664,0.1579370499,-5.039614677,-2.092685461,-1.726788878,-0.173633337,1.77283144,eating
1.72E+18,6.992920898,0.06566238403,-4.770997047,-1.474951267,-1.76527226,-0.3403946459,1.944479585,eating
1.72E+18,7.002910889,-0.2729372978,-4.5247612,-1.279466152,-1.795203686,-0.4314108789,2.014726877,eating
1.72E+18,7.012901123,-0.5921573639,-4.074276447,-1.512237072,-1.770159006,-0.4472928941,1.965248346,eating
1.72E+18,7.022891357,-1.022560596,-3.690247774,-1.712585211,-1.66631496,-0.3501681983,1.83635962,eating
1.72E+18,7.032881348,-1.069571972,-3.380484343,-1.843420982,-1.519100785,-0.2005106062,1.670209169,eating
1.72E+18,7.042871582,-1.080795288,-3.193703175,-1.57683301,-1.360891342,0.0004581354442,1.496728539,eating
1.72E+18,7.052861816,-0.3796839714,-2.969825268,-1.306517839,-1.210012078,0.2222720534,1.347681761,eating
1.72E+18,7.062851807,0.1372351646,-3.429468393,-0.7320976257,-1.08173418,0.3047364354,1.246891975,eating
1.72E+18,7.072842041,0.5490832329,-3.493899345,-0.6090092659,-0.9742250443,0.2833567858,1.213906169,eating
1.72E+18,7.082832031,0.5880117416,-3.325863123,-0.6361541748,-0.8844304681,0.2143310308,1.251167893,eating
1.72E+18,7.092822266,0.2571415901,-3.019018173,-0.511806488,-0.8080745935,0.1117086932,1.300035715,eating
1.72E+18,7.1028125,-0.2981643677,-2.461311817,-0.3249063492,-0.7616502047,-0.03558185324,1.293927193,eating
1.72E+18,7.11280249,-0.9161171913,-2.00082159,-0.04902887344,-0.7598176599,-0.140036732,1.224290609,eating
1.72E+18,7.122792969,-1.32249403,-1.61834383,0.1327462196,-0.7775322199,-0.1608055383,1.091125965,eating
1.72E+18,7.132783203,-1.614915371,-1.457628727,-0.001623630524,-0.7750887871,-0.1186570823,0.8974873424,eating
1.72E+18,7.142772949,-2.119456768,-1.396856308,-0.5243229866,-0.6969003677,0.02855710872,0.6445965767,eating
1.72E+18,7.152763184,-2.68727684,-1.323531628,-1.423548222,-0.503185451,0.2778591514,0.3513898849,eating
1.72E+18,7.162753418,-3.369956493,-1.359111786,-2.327670813,-0.2240282297,0.5936672091,0.04352286831,eating
1.72E+18,7.172743652,-3.284221172,-1.444909096,-2.490744829,0.02336490713,0.8141830564,-0.2240282297,eating
1.72E+18,7.182733887,-2.028327942,-1.787904263,-1.926316261,0.09972081333,0.6914027333,-0.3156553209,eating
1.72E+18,7.192723877,-1.129015446,-2.094806433,-1.779129744,0.03802524135,0.3297811747,-0.2008160353,eating
1.72E+18,7.202713867,-0.6621565819,-2.258910418,-1.930980682,-0.009620844387,-0.05146388337,0.01114796288,eating
1.72E+18,7.212704346,-0.4787445068,-2.180479527,-1.873990774,0.03802524135,-0.3800997138,0.1834068894,eating
1.72E+18,7.222694336,-0.4370903969,-1.978146076,-1.251354933,0.1204896197,-0.5676298141,0.2719797492,eating
1.72E+18,7.23268457,-0.3232574463,-1.578338146,-0.7361445427,0.187071979,-0.6116108298,0.2927485406,eating
1.72E+18,7.242674805,-0.2083220482,-1.147332191,-0.1795682907,0.24693501,-0.5792359114,0.26464957,eating
1.72E+18,7.252664795,-0.2168769836,-0.5171861649,0.3116092682,0.2793098986,-0.5352548957,0.19562383,eating
1.72E+18,7.262655029,-0.267619133,-0.1340618134,0.4876875877,0.2652604282,-0.465007484,0.1009425074,eating
1.72E+18,7.27264502,-0.1555538177,-0.1065168381,0.6777448654,0.2273878902,-0.3929274976,-0.002290677279,eating
1.72E+18,7.282635254,0.000617980957,-0.06850719452,0.813603878,0.2029540092,-0.3141281903,-0.08108997345,eating
1.72E+18,7.292625488,0.06492805481,-0.1735501289,0.7880086899,0.2133384049,-0.1931804419,-0.1207950488,eating
1.72E+18,7.302615479,0.1604752541,-0.2178144455,0.7450451851,0.251210928,-0.06551336497,-0.1360662282,eating
1.72E+18,7.312605713,0.1751327515,-0.1893277168,0.7573847771,0.280531615,0.01695101149,-0.1427855492,eating
1.72E+18,7.322595947,0.1121463776,-0.02989912033,0.8306660652,0.2695363462,0.04443913698,-0.1409530044,eating
1.72E+18,7.332585938,0.1414232254,0.1413578987,0.934442997,0.2188360244,0.02000524849,-0.1372879148,eating
1.72E+18,7.342576172,0.08122158051,0.1354794502,0.8571529388,0.1638597846,-0.05512896553,-0.1342336833,eating
1.72E+18,7.352566162,-0.0418009758,0.1429524422,0.6288275719,0.1320957243,-0.1278197914,-0.1262926757,eating
1.72E+18,7.362556396,-0.1285223961,0.124610424,0.3609499931,0.1265980899,-0.1681357026,-0.1146865711,eating
1.72E+18,7.372546631,-0.1559958458,0.02841663361,0.1642184258,0.1394258887,-0.1986780763,-0.1097997949,eating
1.72E+18,7.382536621,-0.1859641075,-0.05736112595,-0.06799507141,0.1577513069,-0.2499892414,-0.113464877,eating
1.72E+18,7.392526855,-0.213432312,-0.09536075592,-0.2268528938,0.1638597846,-0.3104631305,-0.1207950488,eating
1.72E+18,7.40251709,-0.1885914803,-0.1655573845,-0.4406642914,0.1595838517,-0.3746020794,-0.1366770715,eating
1.72E+18,7.41250708,-0.1619749069,-0.3374323845,-0.5659213066,0.1589729935,-0.4430169761,-0.1598892659,eating
1.72E+18,7.422497314,-0.286796093,-0.5418972969,-0.6657466888,0.1663031727,-0.4680617154,-0.1953184158,eating
1.72E+18,7.432487305,-0.4599294662,-0.6432170868,-0.9132926464,0.1980672181,-0.4222481549,-0.25579229,eating
1.72E+18,7.442477539,-0.5141167641,-0.8950839043,-1.098691463,0.2560977042,-0.3526115716,-0.3400892019,eating
1.72E+18,7.452467773,-0.5259065628,-1.08652401,-1.258253813,0.3220692277,-0.2854183912,-0.4237752855,eating
1.72E+18,7.462457764,-0.5061898232,-1.3651824,-1.424531698,0.3770454824,-0.2237228155,-0.491579324,eating
1.72E+18,7.472447998,-0.5237569809,-1.6279006,-1.439348221,0.4222481549,-0.1620272398,-0.5496098399,eating
1.72E+18,7.482438232,-0.6932163239,-1.916005373,-1.508422136,0.4686725736,-0.06429167092,-0.621078968,eating
1.72E+18,7.492428223,-0.8072290421,-2.273626328,-1.583971739,0.5218162537,0.06772769243,-0.7195017338,eating
1.72E+18,7.502418457,-0.9440236092,-2.622369766,-1.767189503,0.5883986354,0.2033357769,-0.8416711688,eating
1.72E+18,7.512408691,-1.030618191,-2.78503108,-2.008835077,0.6726955175,0.3438306451,-0.975446701,eating
1.72E+18,7.522398682,-1.120743275,-2.993201017,-2.242697716,0.7710419297,0.4873797596,-1.120217562,eating
1.72E+18,7.532388916,-1.183262348,-3.136650562,-2.362467051,0.8718317747,0.6119925976,-1.273540139,eating
1.72E+18,7.542378906,-1.336739063,-3.225317001,-2.509157181,0.9726215601,0.7384379506,-1.443966508,eating
1.72E+18,7.552369141,-1.489739418,-3.305286169,-2.670313835,1.07157886,0.8648833632,-1.639437675,eating
1.72E+18,7.562359375,-1.634592533,-3.455443621,-2.85985136,1.171757698,0.9907178879,-1.858121037,eating
1.72E+18,7.572349365,-1.65672636,-3.696210623,-2.968565702,1.270714998,1.09639442,-2.085356236,eating
1.72E+18,7.5823396,-1.647947788,-3.918199062,-3.01564312,1.359287858,1.175804615,-2.29976368,eating
1.72E+18,7.592329834,-1.716377735,-4.108489513,-2.852160215,1.416707516,1.281481147,-2.491569519,eating
1.72E+18,7.602319824,-1.912666798,-4.08667469,-2.916410446,1.467407823,1.475119829,-2.681543112,eating
1.72E+18,7.612310059,-2.049813747,-4.102146149,-3.06529212,1.541320324,1.735951543,-2.903891563,eating
1.72E+18,7.622300049,-2.148218155,-4.228514671,-3.116097927,1.642110109,2.038931847,-3.163501501,eating
1.72E+18,7.632290283,-2.128601789,-4.334670067,-3.299155474,1.762447,2.341912031,-3.432961702,eating
1.72E+18,7.642280518,-2.057207346,-4.459792137,-3.300477505,1.870566964,2.599078655,-3.679744005,eating
1.72E+18,7.652270508,-2.111539602,-4.593899727,-3.061714172,1.94997716,2.81478405,-3.895372868,eating
1.72E+18,7.662260742,-2.313298225,-4.527997494,-3.011517525,2.000677586,2.964441776,-4.114666939,eating
1.72E+18,7.672250977,-2.570479155,-4.538975716,-3.124141216,2.030074596,3.00903368,-4.37244463,eating
1.72E+18,7.682240967,-2.769058704,-4.616113663,-3.129709721,2.039848089,2.954057455,-4.66626215,eating
1.72E+18,7.692231201,-2.871557713,-4.767080307,-2.889833927,2.030074596,2.814173222,-4.94969511,eating
1.72E+18,7.702221191,-2.953887224,-4.876842022,-2.530571938,1.98540628,2.687651634,-5.205640316,eating
1.72E+18,7.712211426,-2.972171068,-4.971943855,-2.065786362,1.90721786,2.680932283,-5.455476761,eating
1.72E+18,7.72220166,-2.835845947,-5.343551636,-1.717152596,1.827807665,2.759807825,-5.717530251,eating
1.72E+18,7.73219165,-2.621652365,-5.766395092,-1.450938225,1.740456581,2.907633066,-5.974697113,eating
1.72E+18,7.742181885,-2.577449322,-6.383587837,-1.649498463,1.592631459,3.162356377,-6.161692619,eating
1.72E+18,7.752172119,-2.162772894,-6.590212822,-1.643380165,1.463131905,3.407305956,-6.278364658,eating
1.72E+18,7.762162109,-1.69221282,-6.420241356,-1.690766335,1.442363143,3.553909302,-6.399923325,eating
1.72E+18,7.772152344,-1.652297854,-6.499838829,-2.288207054,1.517497301,3.687685013,-6.572182178,eating
1.72E+18,7.782142578,-1.405894995,-6.62117672,-3.063215733,1.657992125,3.847115993,-6.754214287,eating
1.72E+18,7.792132568,-1.127624989,-6.746085167,-3.49207449,1.803373814,3.938132286,-6.851950169,eating
1.72E+18,7.802122803,-0.6164841652,-6.45099926,-3.192450523,1.915158868,3.835510015,-6.804304123,eating
1.72E+18,7.812112793,-0.1584701538,-6.190137863,-2.397115707,1.973189354,3.556963682,-6.655257225,eating
1.72E+18,7.822103027,0.6456260681,-6.255411148,-1.521883011,1.909050345,3.145252466,-6.461618423,eating
1.72E+18,7.832093262,2.041590691,-6.490818024,-0.4956855774,1.667765737,2.657109261,-6.217279911,eating
1.72E+18,7.842083252,4.019296646,-6.443118095,0.5562667847,1.318971992,2.065198183,-5.853138447,eating
1.72E+18,7.852073486,5.496297836,-6.03673172,1.191484928,1.023321867,1.440301538,-5.312538624,eating
1.72E+18,7.862063721,6.106656075,-5.61396122,1.254098892,0.8767185211,1.03592062,-4.676646709,eating
1.72E+18,7.872053711,6.356197834,-5.494420052,0.9138484001,0.8388460279,0.9131402969,-4.123219013,eating
1.72E+18,7.882044189,7.188145638,-5.179904461,0.9112639427,0.9463551044,0.7824189663,-3.821460485,eating
1.72E+18,7.892034424,7.101248741,-4.860412598,0.7490286827,1.136328578,0.713393271,-3.730444193,eating
1.72E+18,7.90202417,6.905353069,-4.28423357,0.8471865654,1.219403863,0.7793647647,-3.666305304,eating
1.72E+18,7.912014404,7.280128002,-3.775544167,1.358818531,1.16748178,0.6999546289,-3.548411846,eating
1.72E+18,7.922004639,7.471288681,-3.41307807,1.68661356,1.037982225,0.4452312887,-3.370044231,eating
1.72E+18,7.931994873,7.579277992,-3.102551937,1.725157261,0.8577822447,0.06520794332,-3.117077112,eating
1.72E+18,7.941985107,7.588080883,-2.773387909,1.8418293,0.67880404,-0.3904841244,-2.77805686,eating
1.72E+18,7.951975098,7.431895256,-2.298798323,2.002799511,0.5596888065,-0.7551599145,-2.421322107,eating
1.72E+18,7.961965088,7.1878438,-2.009496927,2.282958508,0.4857762754,-0.8993198872,-2.15132761,eating
1.72E+18,7.971955566,6.825222492,-1.717709541,2.478720665,0.4369085133,-0.7911999226,-2.016941309,eating
1.72E+18,7.981945557,6.710307121,-1.515678883,2.580552101,0.3837648034,-0.5218162537,-1.972960234,eating
1.72E+18,7.991935791,6.589784622,-1.25707984,2.635985374,0.3110739589,-0.2389939874,-1.913097262,eating
1.72E+18,8.001925781,6.416012764,-1.049973249,2.341778278,0.2402156889,-0.02702999115,-1.798868775,eating
1.72E+18,8.011916016,6.040503979,-1.020650864,1.935248852,0.1889045089,0.1019351333,-1.660206437,eating
1.72E+18,8.02190625,5.532190323,-0.8501589298,1.543037415,0.1608055383,0.1776801944,-1.546588898,eating
1.72E+18,8.03189624,5.218583107,-0.7362391949,1.109273911,0.1247655526,0.2448733896,-1.493445158,eating
1.72E+18,8.041886475,5.102517605,-0.7949726582,0.7766590118,0.06673506647,0.3157316744,-1.476952314,eating
1.72E+18,8.051876709,5.192338943,-0.7109487057,0.3486104012,0.03436015919,0.3639886081,-1.466567874,eating
1.72E+18,8.061866699,5.446933746,-0.6817595959,-0.03064393997,0.02764083818,0.3682645559,-1.44335568,eating
1.72E+18,8.071856934,5.870257378,-0.6919360161,-0.02410697937,0.01908897609,0.3401655555,-1.357837081,eating
1.72E+18,8.081846924,6.329854965,-0.5905809402,0.1198396683,-0.00167983002,0.2552577853,-1.169085264,eating
1.72E+18,8.091837158,6.594676018,-0.4404382706,0.3306031227,-0.04199574888,0.08544225991,-0.8722135425,eating
1.72E+18,8.101827393,6.60134697,-0.411096096,0.5378141403,-0.113464877,-0.1198787764,-0.4879142344,eating
1.72E+18,8.111817383,6.192370892,-0.1886076927,0.5637540817,-0.1861557066,-0.3013004065,-0.07681404054,eating
1.72E+18,8.121807617,5.254385471,-0.0008401870728,0.2646269798,-0.2160872221,-0.4075878263,0.2689255178,eating
1.72E+18,8.131797852,4.14572525,0.1649346352,-0.01678991318,-0.2057028115,-0.4118637741,0.4845545888,eating
1.72E+18,8.141787842,3.001409531,0.3981342316,-0.2225584984,-0.1678302884,-0.3006895781,0.5505260825,eating
1.72E+18,8.151778076,2.134759903,0.4362971783,-0.4613251686,-0.1305686086,-0.0832279399,0.4863871336,eating
1.72E+18,8.161768311,1.584213257,0.3664457798,-0.7202267647,-0.106745556,0.156911388,0.3568875194,eating
1.72E+18,8.171758301,1.281265736,0.2515583038,-0.9415864944,-0.09025268257,0.3242835402,0.2499892414,eating
1.72E+18,8.181748535,1.157827854,0.1087446213,-1.143687725,-0.07559234649,0.385979116,0.2176143378,eating
1.72E+18,8.191738525,1.057876587,-0.004059791565,-1.313872337,-0.06093201414,0.3401655555,0.2560977042,eating
1.72E+18,8.20172876,0.915968895,-0.166567564,-1.428986549,-0.05115845799,0.2082225531,0.3422271907,eating
1.72E+18,8.211718994,0.7623519897,-0.2409219742,-1.344349384,-0.05909947306,0.03527642787,0.4607315361,eating
1.72E+18,8.221708984,0.5595974922,-0.1759524345,-1.286252022,-0.06948387623,-0.1565296054,0.5951179266,eating
1.72E+18,8.231699219,0.1974215508,-0.2609288692,-1.219165325,-0.06459710002,-0.3239017725,0.7062921524,eating
1.72E+18,8.241689453,-0.1746544838,-0.2806901932,-1.151090622,-0.04199574888,-0.4369085133,0.7612683773,eating
1.72E+18,8.251679443,-0.4386510849,-0.2693514824,-0.989944458,-0.01206423342,-0.4931064546,0.7551599145,eating
1.72E+18,8.261669678,-0.654759407,-0.2121977806,-0.7870287895,0.02214321308,-0.4882196784,0.7075138092,eating
1.72E+18,8.271659668,-0.764122963,-0.2131237984,-0.593126297,0.0258082971,-0.3947600424,0.6439857483,eating
1.72E+18,8.281649902,-1.088403702,-0.4580287933,-0.4702630043,-0.07192726433,-0.1620272398,0.6201626658,eating
1.72E+18,8.291640137,-0.5231266022,0.1059165001,-0.03393650055,-0.1287360638,-0.03558185324,0.5774033666,eating
1.72E+18,8.301630127,-0.2038354874,-0.04272031784,0.3011007309,-0.08414421231,-0.09910997003,0.4607315361,eating
1.72E+18,8.311620361,-0.3449201584,-0.4407644272,0.2952408791,-0.01023169141,-0.1565296054,0.3306210935,eating
1.72E+18,8.321610596,-0.4402074814,-0.4529321194,0.1257667542,0.04352286831,-0.08933641016,0.2664821148,eating
1.72E+18,8.331600586,-0.2758779526,-0.3240299225,0.249689579,0.07650861889,-0.002596100792,0.2615953386,eating
1.72E+18,8.34159082,-0.04645824432,-0.3739237785,0.3677091599,0.09116895497,0.01511846948,0.267092973,eating
1.72E+18,8.351580811,0.09351634979,-0.4615454674,0.4326138496,0.07650861889,-0.020310672,0.2835858464,eating
1.72E+18,8.361571045,0.2069478035,-0.4086248875,0.4996848106,0.04535540938,-0.08200624585,0.3361186981,eating
1.72E+18,8.371561279,0.2946081161,-0.4079201221,0.54377985,0.01236965694,-0.1632489264,0.4088095427,eating
1.72E+18,8.38155127,0.2874884605,-0.4251458645,0.5437412262,-0.0193943996,-0.2408265322,0.4711159468,eating
1.72E+18,8.391541504,0.1289134026,-0.3624417782,0.5098323822,-0.03955236077,-0.2762556672,0.5089884996,eating
1.72E+18,8.401531738,-0.01815223694,-0.298694849,0.4763998985,-0.04871506989,-0.2652604282,0.5181511641,eating
1.72E+18,8.411521729,-0.1253938675,-0.1941771507,0.4325065613,-0.0536018461,-0.2402156889,0.5071559548,eating
1.72E+18,8.421511963,-0.2384004593,-0.1384956837,0.4027147293,-0.05665608495,-0.2053973973,0.4778352678,eating
1.72E+18,8.431502197,-0.3117699623,-0.0584564209,0.2944579124,-0.0536018461,-0.1638597846,0.4320217371,eating
1.72E+18,8.441492188,-0.3110580444,-0.01872134209,0.1880393028,-0.05176930502,-0.1394258887,0.3868190348,eating
1.72E+18,8.451482422,-0.2320055962,0.06515932083,0.1641764641,-0.05665608495,-0.1192679256,0.360552609,eating
1.72E+18,8.461472412,-0.1449303627,0.0443789959,0.1299986839,-0.0560452342,-0.09422318637,0.3507790267,eating
1.72E+18,8.471462646,-0.1129350662,0.06250405312,0.03175497055,-0.05299099907,-0.09055810422,0.3434488773,eating
1.72E+18,8.481452881,-0.03498792648,0.009044647217,0.02884244919,-0.05665608495,-0.09605573118,0.3373403847,eating
1.72E+18,8.491442871,0.1291265488,-0.01687979698,0.05858612061,-0.07070557028,-0.1021642014,0.3416163325,eating
1.72E+18,8.501433105,0.2341456413,-0.0095307827,0.05053520203,-0.08964183182,-0.1241547018,0.362385124,eating
1.72E+18,8.51142334,0.3519091606,-0.04626774788,0.1286034584,-0.1073564067,-0.1528645307,0.398425132,eating
1.72E+18,8.52141333,0.4680070877,-0.04852151871,0.1182026863,-0.1256818175,-0.1821851879,0.4393518865,eating
1.72E+18,8.531403564,0.5034542084,-0.1070957184,0.08666467667,-0.1440072358,-0.2078407854,0.4796678126,eating
1.72E+18,8.541393555,0.4496293068,-0.05863428116,0.04545164108,-0.1531699449,-0.2078407854,0.5169295073,eating
1.72E+18,8.551383789,0.3102750778,-0.04223895073,-0.05837917328,-0.148894012,-0.1821851879,0.5358657837,eating
1.72E+18,8.561374268,0.186545372,-0.01267123222,-0.1885609627,-0.1366770715,-0.1553079188,0.5285356045,eating
1.72E+18,8.571364258,0.0357170105,0.02259016037,-0.2681059837,-0.1165191159,-0.1235438585,0.496160686,eating
1.72E+18,8.581354248,-0.0634560585,0.06247878075,-0.2655510902,-0.09513945878,-0.0832279399,0.4436278343,eating
1.72E+18,8.591344482,-0.0670003891,0.09052610397,-0.1916069984,-0.08353336155,-0.05390727147,0.375823766,eating
1.72E+18,8.601334717,0.1353011131,0.1170172691,-0.002285003662,-0.1006370857,-0.03191677108,0.3025220931,eating
1.72E+18,8.611324951,0.4145541191,0.002769708633,0.05688428879,-0.1397313178,-0.02764083818,0.253654331,eating
1.72E+18,8.621315186,0.6169204712,-0.1347994804,0.1078824997,-0.1702736765,-0.02947338112,0.2524326444,eating
1.72E+18,8.631305176,0.7308664322,-0.1607723236,0.09966802597,-0.1806580722,-0.01603474095,0.2945810854,eating
1.72E+18,8.64129541,0.7559776306,-0.1658291817,0.02833223343,-0.1763821393,0.002901524538,0.3477247953,eating
1.72E+18,8.6512854,0.7152814865,-0.1778216362,-0.02557039261,-0.1678302884,0.007177455351,0.391705811,eating
1.72E+18,8.661275635,0.5999836922,-0.1820850372,-0.05290460587,-0.1605001241,0.005955760833,0.4289674759,eating
1.72E+18,8.671265869,0.4896073341,-0.1022219658,-0.1162614822,-0.1568350345,-0.0007635590737,0.4619532526,eating
1.72E+18,8.681255859,0.3907589912,-0.01872110367,-0.1738510132,-0.1525591016,-0.0282516852,0.4808894992,eating
1.72E+18,8.691246094,0.3556160927,-0.009303808212,-0.1841421127,-0.1507265568,-0.07773031294,0.4796678126,eating
1.72E+18,8.701236328,0.3965306282,-0.03002762794,-0.1737837791,-0.1501157135,-0.1308740228,0.465007484,eating
1.72E+18,8.711226318,0.462389946,-0.02310109138,-0.1850166321,-0.144618094,-0.1730224788,0.4497362971,eating
1.72E+18,8.721216553,0.5525789261,-0.02480125427,-0.1027960777,-0.1366770715,-0.2102841735,0.4436278343,eating
1.72E+18,8.731206543,0.6560521126,-0.04548120499,-0.03142976761,-0.1317902952,-0.2304421216,0.4472928941,eating
1.72E+18,8.741196777,0.8144006729,-0.1085054874,0.03929710388,-0.1403421611,-0.235939756,0.4662291706,eating
1.72E+18,8.751187012,0.8732447624,-0.1082737446,0.1411156654,-0.1586675793,-0.2273878902,0.50532341,eating
1.72E+18,8.761177002,0.9186835289,-0.1319258213,0.1353302002,-0.1776038408,-0.2206685692,0.5596888065,eating
1.72E+18,8.771167236,0.9723987579,-0.1127617359,0.120016098,-0.1953184158,-0.2163926363,0.618941009,eating
1.72E+18,8.781157471,0.8347644806,-0.06816768646,0.03488254547,-0.1971509457,-0.1889045089,0.6671979427,eating
1.72E+18,8.791147461,0.7288627625,-0.04042625427,-0.0884308815,-0.1806580722,-0.160194695,0.6861341596,eating
1.72E+18,8.801137695,0.6879434586,-0.01327610016,-0.06266880035,-0.1659977436,-0.1546970755,0.6726955175,eating
1.72E+18,8.81112793,0.7593269348,0.001760959625,0.04079389572,-0.1672194302,-0.1724116355,0.6342121959,eating
1.72E+18,8.82111792,1.053526402,-0.01421165466,0.07473945618,-0.1940967143,-0.2047865391,0.6012263894,eating
1.72E+18,8.831108154,1.311990738,-0.1135998964,0.1201052666,-0.2215848416,-0.2444916219,0.604891479,eating
1.72E+18,8.841098145,1.52123785,-0.1638274193,0.1971316338,-0.231358394,-0.2707580328,0.6513158679,eating
1.72E+18,8.851088379,1.722088814,-0.2255673409,0.1885671616,-0.2356343269,-0.3013004065,0.7178982496,eating
1.72E+18,8.861078613,1.864955425,-0.3135865927,0.2398886681,-0.251516372,-0.3361186981,0.7783721089,eating
1.72E+18,8.871068604,2.050114632,-0.3327373266,0.2293739319,-0.2765611112,-0.3660502136,0.8351809382,eating
1.72E+18,8.881058838,2.242868423,-0.3269702196,0.1892309189,-0.3016058207,-0.3807105422,0.9048175216,eating
1.72E+18,8.891049072,2.363062382,-0.3800646067,0.09932136536,-0.3077143133,-0.3794888556,0.9994988441,eating
1.72E+18,8.901039063,2.373782635,-0.3739939928,0.04950380325,-0.2948864996,-0.3599417508,1.103342891,eating
1.72E+18,8.911029297,2.303647995,-0.3620508909,-0.0002536773682,-0.2710634768,-0.3312319219,1.191915751,eating
1.72E+18,8.921019287,2.287291527,-0.36642766,-0.0501999855,-0.2527380586,-0.3049654961,1.246281147,eating
1.72E+18,8.931009521,2.251152992,-0.4052719474,-0.02141475677,-0.2454078794,-0.3135173619,1.272547603,eating
1.72E+18,8.940999756,2.412149906,-0.4476483464,0.05139827728,-0.2576248348,-0.375823766,1.278656006,eating
1.72E+18,8.950989746,2.831045628,-0.5127903819,0.07461071014,-0.3016058207,-0.5199837089,1.287818789,eating
1.72E+18,8.96097998,3.362097263,-0.622608602,0.3373827934,-0.3687990308,-0.7038487792,1.355622768,eating
1.72E+18,8.970970215,3.799592972,-0.6102678776,0.4900922775,-0.4243861437,-0.8223531246,1.486954927,eating
1.72E+18,8.980960205,4.248414993,-0.7693421841,0.4495429993,-0.4512633979,-0.8669449687,1.650051117,eating
1.72E+18,8.990950439,4.481681824,-0.9841341972,0.5405316353,-0.4549284875,-0.8431219459,1.835748672,eating
1.72E+18,9.00094043,4.435531616,-1.06198287,0.5870232582,-0.4237752855,-0.7215633392,2.004953384,eating
1.72E+18,9.010930664,4.487671852,-1.153576016,0.6795024872,-0.3791834414,-0.5615213513,2.110095501,eating
1.72E+18,9.020920898,4.732748985,-1.322668314,0.8791189194,-0.3614688516,-0.4527905285,2.166293383,eating
1.72E+18,9.030910889,5.183297157,-1.378900886,0.9052705765,-0.3846810758,-0.4430169761,2.264029026,eating
1.72E+18,9.040901123,5.581306934,-1.557557583,0.9275550842,-0.4469874799,-0.5706840754,2.493707657,eating
1.72E+18,9.050891357,5.72550869,-1.778957605,0.9143304825,-0.5227325559,-0.8040276766,2.873043776,eating
1.72E+18,9.060881348,5.216888905,-1.905495167,0.8124189377,-0.5685460567,-1.020267606,3.292695761,eating
1.72E+18,9.070871582,4.469830513,-1.985979795,0.8778018951,-0.5874823332,-1.158319116,3.57979393,eating
1.72E+18,9.080861816,4.058991909,-1.943361402,1.143204689,-0.6265766025,-1.232231617,3.671421051,eating
1.72E+18,9.090851807,3.850042343,-1.864381671,1.472919464,-0.7060630918,-1.175422788,3.675697088,eating
1.72E+18,9.100842041,3.758433819,-2.05065465,1.629666328,-0.7836406827,-0.9952229261,3.695854902,eating
1.72E+18,9.110832031,3.981191158,-2.261407614,1.789776802,-0.8282325268,-0.8138012886,3.792368889,eating
1.72E+18,9.120822266,4.025101662,-2.563854933,1.634354591,-0.8361735344,-0.6843016148,3.967682123,eating
1.72E+18,9.1308125,3.981370926,-3.042685509,1.670647621,-0.8636616468,-0.6085565686,4.20591259,eating
1.72E+18,9.14080249,3.384502411,-3.299749136,1.861380577,-0.9332982302,-0.4766135812,4.470409393,eating
1.72E+18,9.150792969,2.487560749,-3.378709793,1.77200222,-0.9974372387,-0.2756448388,4.667102337,eating
1.72E+18,9.160783203,1.519570351,-3.346708298,1.404846191,-1.065852165,-0.1479777545,4.761249065,eating
1.72E+18,9.170772949,0.5546686649,-3.025684595,0.8802375793,-1.115330696,-0.1149920002,4.758194923,eating
1.72E+18,9.180763184,-0.1418337822,-2.81914711,0.3857288361,-1.147094846,-0.1046075895,4.664047718,eating
1.72E+18,9.190753418,-0.357101202,-2.904725552,0.1453838348,-1.183745623,-0.1101052165,4.529661655,eating
1.72E+18,9.200743652,-0.5355479717,-2.976356983,0.05852508545,-1.222229004,-0.1125486046,4.396496773,eating
1.72E+18,9.210733887,-0.3583552837,-3.261126995,-0.07527542114,-1.28025949,-0.1296523362,4.288376808,eating
1.72E+18,9.220723877,-0.1641893387,-3.861509323,0.06267929077,-1.369443178,-0.1766875684,4.270051479,eating
1.72E+18,9.230714111,-0.378559351,-4.373350143,-0.0009059906006,-1.451296687,-0.04352286831,4.298761368,eating
1.72E+18,9.240704346,-0.8037027121,-4.672676563,-0.2378945351,-1.459848642,0.2247154415,4.278603077,eating
1.72E+18,9.250694336,-1.519792318,-4.827540398,-0.3845305443,-1.428084493,0.4666109383,4.192473888,eating
1.72E+18,9.26068457,-2.318791866,-4.686830521,-0.7757306099,-1.37921679,0.6859050989,4.077634335,eating
1.72E+18,9.270674805,-3.133050442,-4.642626762,-1.826699257,-1.247273803,0.8386169076,3.978677273,eating
1.72E+18,9.280664795,-4.188145161,-4.97451067,-3.234496117,-0.9852202535,0.858164072,3.870557308,eating
1.72E+18,9.290655029,-4.845964432,-4.982203484,-3.885227919,-0.7292752862,0.7744779587,3.700741768,eating
1.72E+18,9.30064502,-4.976014137,-4.776488304,-4.118720055,-0.598477602,0.5692332983,3.489999533,eating
1.72E+18,9.310635254,-4.961658478,-4.600642204,-4.065965652,-0.571600318,0.279080838,3.311632156,eating
1.72E+18,9.320625488,-4.784905434,-4.475520611,-3.790080309,-0.5929799676,0.0193943996,3.168693781,eating
1.72E+18,9.330615479,-4.576925755,-4.395032883,-3.632853508,-0.6290199757,-0.1546970755,2.993380547,eating
1.72E+18,9.340605713,-4.631802082,-4.245022774,-3.492179871,-0.6326850653,-0.2218902707,2.758815289,eating
1.72E+18,9.350595947,-4.553351402,-3.903521061,-3.414161444,-0.5801522136,-0.1498102844,2.48943162,eating
1.72E+18,9.360585938,-4.354268551,-3.761240005,-3.239489794,-0.4836383164,0.01389677543,2.210274458,eating
1.72E+18,9.370576172,-4.11879015,-3.445310831,-2.917927742,-0.3657447994,0.2210503519,1.940203547,eating
1.72E+18,9.380566162,-3.713176012,-3.07793498,-2.497225761,-0.2612899244,0.4348468781,1.681204319,eating
1.72E+18,9.390556396,-3.470546007,-2.882133961,-2.004528522,-0.1867665499,0.6339830756,1.432589531,eating
1.72E+18,9.400546631,-3.076056719,-2.585438728,-1.414400578,-0.1385096163,0.822124064,1.196802497,eating
1.72E+18,9.410536621,-2.518434763,-2.612523556,-0.9571828842,-0.1091889441,0.9467368722,0.9970554113,eating
1.72E+18,9.420526855,-2.155982018,-2.580984116,-0.6963119507,-0.08597674966,1.022481918,0.8577822447,eating
1.72E+18,9.43051709,-1.993706226,-2.46218729,-0.5618696213,-0.06154286116,1.053024292,0.7673768401,eating
1.72E+18,9.44050708,-1.920627475,-2.291102886,-0.4947142601,-0.0560452342,1.016984344,0.6879667044,eating
1.72E+18,9.450497314,-1.998670578,-2.102350712,-0.5532727242,-0.06581879407,0.9461260438,0.6067240238,eating
1.72E+18,9.460487305,-2.031946898,-1.909111977,-0.7311463356,-0.05909947306,0.844114542,0.5236487985,eating
1.72E+18,9.470477539,-1.880538583,-1.497632504,-0.7354488373,-0.03527642787,0.7109498382,0.4308000207,eating
1.72E+18,9.480467773,-1.577349901,-1.325499535,-0.713801384,-0.02489202656,0.5570163727,0.3312319219,eating
1.72E+18,9.490457764,-1.346108317,-1.301381111,-0.6901335716,-0.01572931744,0.4067479074,0.2524326444,eating
1.72E+18,9.500447998,-1.053971767,-1.266363621,-0.5674171448,0.00565033732,0.2674747407,0.2047865391,eating
1.72E+18,9.510438232,-0.8723274469,-1.206012726,-0.3460154533,0.0282516852,0.1361425817,0.1760767251,eating
1.72E+18,9.520428223,-0.8316223025,-1.000787735,-0.1410913467,0.05390727147,0.05665608495,0.1351499557,eating
1.72E+18,9.530418457,-0.6610671282,-0.8855185509,0.1407976151,0.07406523079,0.04566083103,0.06734590977,eating
1.72E+18,9.540408691,-0.3285241425,-0.8453021049,0.522875309,0.06490252167,0.06032116711,0.01175880991,eating
1.72E+18,9.550398682,0.006049871445,-0.7356925011,0.73884058,0.03436015919,0.08238802105,0.006261184346,eating
1.72E+18,9.560388916,0.2527579963,-0.8524508476,0.6859793663,0.01053711493,0.09827005118,0.04291202128,eating
1.72E+18,9.570378906,0.2904116809,-0.9420919418,0.4465456009,0.01725643501,0.08971819282,0.09544488788,eating
1.72E+18,9.580369141,0.2313103229,-0.9369525909,0.1611304283,0.03619270027,0.05421269313,0.1485885978,eating
1.72E+18,9.590359375,0.09308372438,-0.7773523331,-0.06524515152,0.05818320066,0.0004581354442,0.1925695986,eating
1.72E+18,9.600349365,-0.06058911979,-0.5618605614,-0.2252912521,0.07650861889,-0.05940489471,0.2151709497,eating
1.72E+18,9.6103396,-0.2776309252,-0.3004293442,-0.3619446754,0.09177979827,-0.1119377613,0.2066190839,eating
1.72E+18,9.620329834,-0.4621679783,-0.03562355042,-0.5259613991,0.1156028435,-0.1614163816,0.1681357026,eating
1.72E+18,9.630319824,-0.5629252195,0.1205806732,-0.6100897789,0.1443126649,-0.215781793,0.1064401343,eating
1.72E+18,9.640310059,-0.4763674438,0.03118896484,-0.5011601448,0.1571404636,-0.284807533,0.04474456236,eating
1.72E+18,9.650300049,-0.2529212236,-0.02264165878,-0.2914905548,0.1510319859,-0.3562766612,0.01908897609,eating
1.72E+18,9.660290527,-0.07240244746,-0.1635580063,-0.03314447403,0.1327065676,-0.3898732662,0.0282516852,eating
1.72E+18,9.670280518,0.06618955731,-0.1503210068,0.182993412,0.1119377613,-0.3703261614,0.03558185324,eating
1.72E+18,9.680270508,0.00475075841,-0.1953220367,0.2559065819,0.09972081333,-0.291526854,0.02519745007,eating
1.72E+18,9.690260742,-0.1109535992,-0.1278252602,0.2395567894,0.1033858955,-0.1589729935,-0.005955760833,eating
1.72E+18,9.700251221,-0.1443599463,-0.05969381332,0.1859283447,0.1174353883,-0.01420219894,-0.05543438718,eating
1.72E+18,9.710241211,-0.06343078613,-0.122838974,0.1651058197,0.1229330078,0.08788564801,-0.09636115283,eating
1.72E+18,9.720231445,-0.05975908041,-0.162571907,0.1686739922,0.1143811494,0.1202605516,-0.1073564067,eating
1.72E+18,9.730221191,-0.09579989314,-0.1937170029,0.06835365295,0.09849911928,0.08483141661,-0.09575030953,eating
1.72E+18,9.74021167,-0.2158368826,-0.3426456451,-0.05445623398,0.08567132801,0.005344913341,-0.0804791227,eating
1.72E+18,9.750201904,-0.3662535846,-0.4034552574,-0.1258540154,0.07650861889,-0.09116895497,-0.07070557028,eating
1.72E+18,9.760191895,-0.6054403782,-0.4576497078,-0.2844524384,0.06673506647,-0.1809635013,-0.07131642103,eating
1.72E+18,9.770182129,-0.7994493246,-0.5768609047,-0.3367333412,0.05818320066,-0.2499892414,-0.08597674966,eating
1.72E+18,9.780172363,-1.006771564,-0.6674113274,-0.4291534424,0.05573981255,-0.2823641598,-0.113464877,eating
1.72E+18,9.790162354,-1.249925256,-0.7765870094,-0.5384302139,0.06184828654,-0.2786990702,-0.1543916464,eating
1.72E+18,9.800152588,-1.48982811,-0.9107832909,-0.7369289398,0.078952007,-0.2652604282,-0.2093679011,eating
1.72E+18,9.810142822,-1.776529789,-1.083628654,-0.9247074127,0.105829291,-0.2664821148,-0.2790044844,eating
1.72E+18,9.820132813,-2.121525288,-1.211266041,-0.9922208786,0.1363716573,-0.2585411072,-0.3706315756,eating
1.72E+18,9.830123047,-2.489729166,-1.353245735,-1.100184917,0.1718007922,-0.2304421216,-0.4909684956,eating
1.72E+18,9.840113037,-2.763530254,-1.60272646,-1.145797729,0.2066190839,-0.1962346882,-0.6339830756,eating
1.72E+18,9.850103271,-2.943903923,-1.828451157,-1.135964394,0.2347180545,-0.1553079188,-0.7818081379,eating
1.72E+18,9.860093506,-3.123821974,-1.987024307,-1.185657024,0.2664821148,-0.1168245375,-0.9271897674,eating
1.72E+18,9.870083496,-3.285496235,-2.1880126,-1.285280704,0.3013004065,-0.09483403713,-1.075625658,eating
1.72E+18,9.88007373,-3.434506655,-2.328437805,-1.353337765,0.3348970115,-0.09727742523,-1.227726579,eating
1.72E+18,9.890063965,-3.594163656,-2.435124636,-1.398805618,0.3587200642,-0.1101052165,-1.384103537,eating
1.72E+18,9.900053955,-3.683409452,-2.520334244,-1.490492821,0.3746020794,-0.1284306347,-1.551475644,eating
1.72E+18,9.910044189,-3.690540552,-2.662566185,-1.664086819,0.3898732662,-0.1559187621,-1.732897282,eating
1.72E+18,9.920034424,-3.634682178,-2.83599925,-1.942080498,0.4234698713,-0.2127275616,-1.91065383,eating
1.72E+18,9.930024414,-3.508241415,-2.998152256,-2.139217854,0.476002723,-0.2903051674,-2.06947422,eating
1.72E+18,9.940014648,-3.302528858,-3.159623623,-2.268571854,0.5419742465,-0.3776563108,-2.217910051,eating
1.72E+18,9.950004639,-3.08247757,-3.3333323,-2.460268021,0.622606039,-0.4766135812,-2.352296352,eating
1.72E+18,9.959994873,-2.885292292,-3.502960205,-2.655988693,0.7270609736,-0.5926745534,-2.45919466,eating
1.72E+18,9.969985107,-2.666495085,-3.623895407,-2.912174225,0.8541171551,-0.7508839965,-2.524555445,eating
1.72E+18,9.979975098,-2.45836401,-3.760065794,-2.959651947,0.9933903813,-0.9518527389,-2.553875923,eating
1.72E+18,9.989965332,-2.266858578,-3.681641102,-2.959199905,1.141215444,-1.160151601,-2.585029125,eating
1.72E+18,9.999955566,-2.068301678,-3.68468523,-3.042229176,1.295759797,-1.372115612,-2.640005589,eating
1.72E+18,10.00994556,-1.841026068,-3.828814745,-2.921427727,1.449693203,-1.605459332,-2.695592642,eating
1.72E+18,10.01993579,-1.773162246,-3.667794704,-2.655700684,1.59568572,-1.836970448,-2.757288218,eating
1.72E+18,10.02992578,-1.665563941,-3.601121902,-2.577048302,1.709914207,-2.061762094,-2.865408182,eating
1.72E+18,10.03991602,-1.460448742,-3.819706917,-2.575310707,1.794211149,-2.326869965,-3.002238035,eating
1.72E+18,10.04990625,-1.191222668,-3.993894339,-2.472863197,1.881562233,-2.647030354,-3.104860306,eating
1.72E+18,10.05989624,-0.9651378393,-3.892066956,-2.167506695,2.014192581,-2.946345329,-3.140900135,eating
1.72E+18,10.06988647,-0.7993371487,-3.984542131,-1.905200005,2.194392443,-3.156476736,-3.156782389,eating
1.72E+18,10.07987671,-0.5347729921,-4.336457729,-1.645891666,2.3935287,-3.315907955,-3.178772688,eating
1.72E+18,10.0898667,-0.1993948817,-4.641915798,-1.527994156,2.592664719,-3.493053675,-3.17816186,eating
1.72E+18,10.09985693,0.1964794248,-4.977614403,-1.480478287,2.769810438,-3.754496336,-3.087145805,eating
1.72E+18,10.10984692,0.6698687077,-5.259680748,-1.282452106,2.900531769,-4.122837067,-2.841585159,eating
1.72E+18,10.11983716,1.215643406,-4.988455772,-0.1479234695,3.006819248,-4.441088676,-2.431706667,eating
1.72E+18,10.12982739,0.9752979279,-4.188000679,1.239590645,3.165639639,-4.369008541,-2.018773794,eating
1.72E+18,10.13981738,0.5986269712,-3.048350334,1.736263275,3.421584606,-3.713569641,-1.769548178,eating
1.72E+18,10.14980762,-0.3668137789,-3.14554143,3.124176979,3.672642708,-2.683070183,-1.789706111,eating
1.72E+18,10.1597981,-0.8977639675,-3.708002806,3.746624947,3.816191912,-1.516886473,-2.130558968,eating
1.72E+18,10.16978784,-1.179704309,-4.427489281,4.18842411,3.839404106,-0.4106420577,-2.727356672,eating
1.72E+18,10.17977808,-0.6100375652,-4.235731602,3.894141197,3.787482023,0.5429668427,-3.348053932,eating
1.72E+18,10.18976831,0.1953095198,-3.539587498,3.513440132,3.724564791,1.217953086,-3.697458506,eating
1.72E+18,10.1997583,0.8237866759,-3.430482864,3.062849998,3.634159327,1.512381434,-3.712729692,eating
1.72E+18,10.20974878,1.2240448,-3.659317493,2.659509659,3.468008995,1.426862836,-3.526421309,eating
1.72E+18,10.21973877,1.431611538,-3.701158762,2.422190666,3.232221842,0.9345199466,-3.271010637,eating
1.72E+18,10.229729,1.515923977,-3.52910471,2.440570831,2.96711421,0.1239256412,-2.998572826,eating
1.72E+18,10.23971899,1.590405822,-3.162357807,3.025530815,2.71605587,-0.7930324674,-2.726135015,eating
1.72E+18,10.24970923,1.439186215,-2.829494476,3.84680748,2.535856009,-1.488787532,-2.542269945,eating
1.72E+18,10.25969946,1.260518074,-2.78813839,4.633719444,2.414908171,-1.802152157,-2.519057751,eating
1.72E+18,10.2696897,1.279413581,-2.894015789,5.140029907,2.290906191,-1.709914207,-2.600911379,eating
1.72E+18,10.27967969,1.699802756,-2.871290207,5.476857185,2.146135569,-1.302479029,-2.676045418,eating
1.72E+18,10.28966992,2.424287558,-2.70812583,5.671792984,2.023355246,-0.7979192138,-2.637562037,eating
1.72E+18,10.29965991,2.99104619,-2.474155903,5.598011017,1.909661293,-0.3666610718,-2.457362175,eating
1.72E+18,10.30965015,3.210560322,-2.145078659,5.343028069,1.767333865,-0.07589777559,-2.164766312,eating
1.72E+18,10.31964038,3.202902794,-1.894629598,4.949635506,1.593242407,0.04627167806,-1.839184761,eating
1.72E+18,10.32963037,3.100646496,-1.615679979,4.673677444,1.416707516,0.002290677279,-1.547810555,eating
1.72E+18,10.33962061,2.767418861,-1.384691715,4.508696556,1.304922462,-0.05696150661,-1.324240446,eating
1.72E+18,10.34961084,2.408871651,-1.158710241,4.460430145,1.293927193,0.03894151375,-1.227726579,eating
1.72E+18,10.35960083,2.407589436,-0.8555226326,4.557937622,1.314085126,0.2577011883,-1.24116528,eating
1.72E+18,10.36959106,2.481971264,-0.6202397346,4.724642754,1.295148849,0.5527403951,-1.294919848,eating
1.72E+18,10.3795813,2.612296104,-0.3716828823,4.82253933,1.211462855,0.8716026545,-1.319964528,eating
1.72E+18,10.38957129,2.915409088,-0.1389844418,4.804884911,1.075854778,1.08906436,-1.259490728,eating
1.72E+18,10.39956152,3.1425457,-0.03327345848,4.573674202,0.9084826112,1.149538159,-1.111665606,eating
1.72E+18,10.40955151,3.029704571,0.09552431107,3.990097046,0.7282826304,1.080512404,-0.9198595881,eating
1.72E+18,10.41954175,2.867527723,0.26810956,3.447877884,0.5450284481,0.8960365653,-0.730496943,eating
1.72E+18,10.42953198,2.651113987,0.4555249214,2.93591404,0.3684936166,0.6156576872,-0.5673243999,eating
1.72E+18,10.43952197,2.349371195,0.5787081718,2.466937065,0.2249445021,0.294962883,-0.4421007037,eating
1.72E+18,10.44951221,2.040720463,0.6500049829,2.13435173,0.1449235082,0.04504998401,-0.362690568,eating
1.72E+18,10.45950244,1.905613422,0.657879591,1.830136299,0.1296523362,-0.07284353673,-0.3431434333,eating
1.72E+18,10.46949243,1.88602972,0.7193784714,1.67039299,0.1449235082,-0.07345438004,-0.3614688516,eating
1.72E+18,10.47948267,1.896852732,0.7033051252,1.617711067,0.1620272398,0.01511846948,-0.3724641204,eating
1.72E+18,10.48947266,1.896967649,0.6757118702,1.639670372,0.1638597846,0.1532463133,-0.3584146202,eating
1.72E+18,10.49946289,1.845234871,0.5920994282,1.606633186,0.1455343664,0.2919086218,-0.3254288733,eating
1.72E+18,10.50945313,1.763226986,0.599468708,1.437637329,0.1113269106,0.4000285864,-0.2753393948,eating
1.72E+18,10.51944312,1.640130043,0.5412154198,1.183455467,0.06245913357,0.4660001099,-0.2093679011,eating
1.72E+18,10.52943335,1.503904104,0.5822074413,0.9261245728,0.01175880991,0.4855472147,-0.1324011385,eating
1.72E+18,10.53942358,1.295722246,0.6271014214,0.5993995667,-0.03283303976,0.4714977145,-0.06032116711,eating
1.72E+18,10.54941357,1.082836986,0.6764694452,0.2732210159,-0.06765133142,0.4354577363,-0.00900999736,eating
1.72E+18,10.55940381,0.8385552764,0.6808187962,0.03874492645,-0.09086353332,0.3872008026,0.01175880991,eating
1.72E+18,10.5693938,0.6008192301,0.6554402113,-0.1205339432,-0.100026235,0.3279486299,-0.005955760833,eating
1.72E+18,10.57938403,0.4351111054,0.6344096661,-0.2451810837,-0.09880454093,0.2680855989,-0.06032116711,eating
1.72E+18,10.58937427,0.2957518101,0.6054326296,-0.2948532104,-0.100026235,0.2131093442,-0.1275143623,eating
1.72E+18,10.59936426,0.2337208986,0.5040955544,-0.3200817108,-0.1024696305,0.1703500301,-0.1812689304,eating
1.72E+18,10.60935449,0.266331315,0.2889246941,-0.3303117752,-0.09391776472,0.136753425,-0.2063136548,eating
1.72E+18,10.61934473,0.2602748871,0.2168183327,-0.3804187775,-0.07681404054,0.1141520813,-0.2038702667,eating
1.72E+18,10.62933472,0.2476807833,0.1081721783,-0.391699791,-0.06337540597,0.10132429,-0.1818797737,eating
1.72E+18,10.63932495,0.269562304,0.04618692398,-0.3834466934,-0.0560452342,0.08177717775,-0.1507265568,eating
1.72E+18,10.64931519,0.2437072992,-0.02958607674,-0.3724374771,-0.0560452342,0.04504998401,-0.1140757278,eating
1.72E+18,10.65930518,0.1033325791,-0.05282449722,-0.2872009277,-0.06215370819,0.00900999736,-0.07803573459,eating
1.72E+18,10.66929565,-0.06933152676,-0.09473061562,-0.2067565918,-0.06032116711,-0.005039489828,-0.05787777901,eating
1.72E+18,10.67928564,-0.2292087078,-0.1253209114,-0.1238946915,-0.04138490185,0.01878355257,-0.06765133142,eating
1.72E+18,10.68927588,-0.3180608749,-0.2104492188,-0.0480556488,-0.007788302377,0.06642963737,-0.1085781008,eating
1.72E+18,10.69926611,-0.3221117258,-0.2233715057,0.05418586731,0.0282516852,0.1233147904,-0.1684411317,eating
1.72E+18,10.7092561,-0.3034514189,-0.2724838257,0.1515455246,0.05573981255,0.1770693511,-0.2252499312,eating
1.72E+18,10.71924634,-0.2207130194,-0.2848243713,0.2605409622,0.06795676053,0.2155527323,-0.258235693,eating
1.72E+18,10.72923657,-0.1585800648,-0.3067889214,0.3213558197,0.06673506647,0.230213061,-0.2606790662,eating
1.72E+18,10.73922656,-0.08728969097,-0.3846080303,0.2910003662,0.05329642445,0.2265479714,-0.2374668717,eating
1.72E+18,10.7492168,-0.02269530296,-0.3753831387,0.2866744995,0.03252761811,0.2088334113,-0.1977618039,eating
1.72E+18,10.75920703,0.02910619974,-0.3916487694,0.2295856476,0.01053711493,0.1782910377,-0.1525591016,eating
1.72E+18,10.76919702,-0.001653969288,-0.3755307198,0.1891927719,-0.004734066315,0.156911388,-0.1195733473,eating
1.72E+18,10.77918726,-0.02264803648,-0.3738014698,0.1178789139,-0.006566607859,0.1514137685,-0.1049130186,eating
1.72E+18,10.78917725,-0.03965944052,-0.4206604958,0.1020259857,0.0099262679,0.1599656194,-0.1030804738,eating
1.72E+18,10.79916748,-0.04025065899,-0.3759186268,0.1847257614,0.04352286831,0.1898971349,-0.1055238619,eating
1.72E+18,10.80915771,-0.008392035961,-0.3345038891,0.3035964966,0.08628217876,0.2534252703,-0.1116323397,eating
1.72E+18,10.81914771,0.06490731239,-0.282646656,0.5154895782,0.1229330078,0.3481065929,-0.118962504,eating
1.72E+18,10.82913794,0.1247767806,-0.2105970383,0.8053560257,0.1357607991,0.4397336841,-0.1214058921,eating
1.72E+18,10.83912817,0.1515318155,-0.09449028969,1.034095764,0.1223221645,0.5093702674,-0.113464877,eating
1.72E+18,10.84911816,0.2053195834,-0.05781650543,1.151574135,0.09055810422,0.5447993875,-0.08903098851,eating
1.72E+18,10.8591084,0.1968358457,-0.0152323246,1.213103294,0.04963133857,0.5362475514,-0.05726693198,eating
1.72E+18,10.86909839,0.1346210539,0.006637811661,1.278672218,0.00565033732,0.4898231328,-0.02855710872,eating
1.72E+18,10.87908862,0.06646692753,0.07744884491,1.350845337,-0.03283303976,0.4250733256,-0.02183778957,eating
1.72E+18,10.88907886,0.1048129201,0.08260202408,1.522727013,-0.06765133142,0.3670428395,-0.04627167806,eating
1.72E+18,10.89906885,0.3225541115,0.124430418,1.724565506,-0.1073564067,0.3218401372,-0.08353336155,eating
1.72E+18,10.90905908,0.6101954579,0.1896348,1.898508072,-0.1617218107,0.288243562,-0.1018587798,eating
1.72E+18,10.91904932,0.8496512771,0.2418866158,1.998969078,-0.2228065431,0.279080838,-0.0817008242,eating
1.72E+18,10.92903931,1.107335925,0.2382640839,2.069025993,-0.2851129472,0.2912977934,-0.02367033064,eating
1.72E+18,10.93902954,1.236467838,0.2039341927,2.161628723,-0.3358132839,0.3084014952,0.05940489471,eating
1.72E+18,10.94901953,1.227417231,0.1480028629,2.243746758,-0.3651339412,0.3603235185,0.1241547018,eating
1.72E+18,10.95900977,1.195553064,0.1952342987,2.33468914,-0.3865135908,0.4446204603,0.1461452097,eating
1.72E+18,10.969,1.181785226,0.2436125278,2.520202637,-0.4219427407,0.5331932902,0.140036732,eating
1.72E+18,10.97898999,1.175462127,0.2154452801,2.830958366,-0.4701996744,0.6358156204,0.1204896197,eating
1.72E+18,10.98898022,1.306706309,0.2136111259,3.084821701,-0.5435013771,0.7500441074,0.1027750522,eating
1.72E+18,10.99897046,1.691737771,0.1111352444,3.503222466,-0.6706339121,0.8593857288,0.1229330078,eating
1.72E+18,11.00896045,2.138939619,-0.01790881157,3.968206406,-0.84839046,0.9791117907,0.2029540092,eating
1.72E+18,11.01895068,2.588475227,-0.01640057564,4.03150177,-1.027979612,1.112887383,0.3355078697,eating
1.72E+18,11.02894092,2.844600677,-0.1553214788,3.684034348,-1.160533428,1.218563914,0.4906630516,eating
1.72E+18,11.03893091,2.810040474,-0.4627087116,3.255725861,-1.235667706,1.278427005,0.6372663975,eating
1.72E+18,11.04892114,2.74095273,-0.7113755941,2.838697433,-1.2588799,1.297363281,0.7649334669,eating
